timestamp,accelerationX,accelerationY,accelerationZ
2025-01-15T10:00:00.000Z,-0.00273,-0.029456,-0.960753
2025-01-15T10:00:00.040Z,-0.020902,0.017842,-1.012156
2025-01-15T10:00:00.080Z,-0.010364,-0.011908,-0.952655
2025-01-15T10:00:00.120Z,-0.031872,-0.022291,-1.03461
2025-01-15T10:00:00.160Z,0.001119,0.03894,-0.982217
2025-01-15T10:00:00.200Z,0.011732,0.005535,-1.0009
2025-01-15T10:00:00.240Z,0.029871,0.022039,-0.959218
2025-01-15T10:00:00.280Z,0.008467,-0.051614,-0.949265
2025-01-15T10:00:00.320Z,-0.024617,-0.010501,-1.025485
2025-01-15T10:00:00.360Z,0.001233,0.013584,-1.032986
2025-01-15T10:00:00.400Z,-0.011835,-0.044,-1.150455
2025-01-15T10:00:00.440Z,0.03205,-0.016862,-1.087203
2025-01-15T10:00:00.480Z,0.028235,-0.017883,-0.946852
2025-01-15T10:00:00.520Z,0.023951,-0.07108,-0.990232
2025-01-15T10:00:00.560Z,-0.005638,-0.007498,-0.910375
2025-01-15T10:00:00.600Z,0.000131,0.007251,-1.000623
2025-01-15T10:00:00.640Z,-0.007002,0.042466,-0.976528
2025-01-15T10:00:00.680Z,0.00738,0.003442,-1.019042
2025-01-15T10:00:00.720Z,0.014796,0.052519,-1.006029
2025-01-15T10:00:00.760Z,-0.026241,0.016529,-1.029771
2025-01-15T10:00:00.800Z,-0.090105,-0.030942,-1.061755
2025-01-15T10:00:00.840Z,-0.034915,-0.024587,-1.053446
2025-01-15T10:00:00.880Z,0.044353,0.025317,-0.975003
2025-01-15T10:00:00.920Z,-0.005322,0.966882,-0.990198
2025-01-15T10:00:00.960Z,-0.123421,-0.045964,-1.03315
2025-01-15T10:00:01.000Z,-0.036591,0.004413,-1.044862
2025-01-15T10:00:01.040Z,-0.008545,-0.058889,-0.967092
2025-01-15T10:00:01.080Z,0.008255,-0.021835,-1.015641
2025-01-15T10:00:01.120Z,-0.013883,-0.001925,-1.029445
2025-01-15T10:00:01.160Z,-0.065792,-0.042549,-1.030158
2025-01-15T10:00:01.200Z,0.039927,-0.016482,-1.06199
2025-01-15T10:00:01.240Z,-0.040466,0.037796,-1.014354
2025-01-15T10:00:01.280Z,-0.052615,-0.010863,-1.051853
2025-01-15T10:00:01.320Z,-1.080993,0.021871,-1.006408
2025-01-15T10:00:01.360Z,-0.017744,0.027482,-0.999278
2025-01-15T10:00:01.400Z,-0.037965,0.012996,-0.995194
2025-01-15T10:00:01.440Z,0.006047,-0.029859,-1.028529
2025-01-15T10:00:01.480Z,0.030959,0.039776,-0.968312
2025-01-15T10:00:01.520Z,0.022473,-0.005075,-0.973247
2025-01-15T10:00:01.560Z,-0.016075,-0.015474,-0.963052
2025-01-15T10:00:01.600Z,0.017321,0.019356,-1.00205
2025-01-15T10:00:01.640Z,-0.041041,-0.004217,-0.912181
2025-01-15T10:00:01.680Z,0.055511,-0.011187,-0.969147
2025-01-15T10:00:01.720Z,0.00212,-0.006038,-1.025887
2025-01-15T10:00:01.760Z,0.020329,0.005078,-0.987778
2025-01-15T10:00:01.800Z,-0.002538,-0.015868,-1.027657
2025-01-15T10:00:01.840Z,-0.038814,-0.020573,-1.014325
2025-01-15T10:00:01.880Z,-0.036183,-0.003354,-1.009008
2025-01-15T10:00:01.920Z,0.022153,0.043312,-0.990711
2025-01-15T10:00:01.960Z,-0.009868,0.015615,-0.954934
2025-01-15T10:00:02.000Z,1.107845,-0.017246,-1.028884
2025-01-15T10:00:02.040Z,-0.016873,-0.033139,-0.955465
2025-01-15T10:00:02.080Z,0.036606,0.02397,-1.020418
2025-01-15T10:00:02.120Z,0.004963,0.003136,-1.02913
2025-01-15T10:00:02.160Z,-0.025038,0.891958,-0.980976
2025-01-15T10:00:02.200Z,-0.006332,0.019302,-0.99388
2025-01-15T10:00:02.240Z,-0.009338,-0.037262,-0.977518
2025-01-15T10:00:02.280Z,-0.045013,-0.005233,-1.017725
2025-01-15T10:00:02.320Z,-0.037474,0.020301,-1.032585
2025-01-15T10:00:02.360Z,-0.021886,0.018853,-1.041355
2025-01-15T10:00:02.400Z,0.053281,-0.022866,-0.981002
2025-01-15T10:00:02.440Z,-0.018259,0.065547,-1.014167
2025-01-15T10:00:02.480Z,-0.051547,-0.019173,-0.969649
2025-01-15T10:00:02.520Z,-0.017765,0.001476,-1.000611
2025-01-15T10:00:02.560Z,0.006336,0.01075,-0.988479
2025-01-15T10:00:02.600Z,0.015667,0.006999,-1.111596
2025-01-15T10:00:02.640Z,-0.004215,0.010675,-0.979253
2025-01-15T10:00:02.680Z,-0.007474,-0.0136,-0.985041
2025-01-15T10:00:02.720Z,0.006602,0.012311,-1.008037
2025-01-15T10:00:02.760Z,0.004218,0.010564,-1.042501
2025-01-15T10:00:02.800Z,0.003753,0.006241,-0.94899
2025-01-15T10:00:02.840Z,-0.068923,0.007322,-1.057459
2025-01-15T10:00:02.880Z,0.008161,-0.022848,-0.949723
2025-01-15T10:00:02.920Z,-0.03966,0.034146,-0.950008
2025-01-15T10:00:02.960Z,-0.007265,-0.085703,-0.960038
2025-01-15T10:00:03.000Z,0.048511,-0.001643,-1.017307
2025-01-15T10:00:03.040Z,0.013403,-0.023287,-0.933067
2025-01-15T10:00:03.080Z,-0.036385,0.049168,-1.011346
2025-01-15T10:00:03.120Z,-0.040155,-0.00518,-1.064765
2025-01-15T10:00:03.160Z,0.011825,-0.033873,-0.975446
2025-01-15T10:00:03.200Z,-0.008,-0.010419,-0.97843
2025-01-15T10:00:03.240Z,-0.024328,-0.039132,-0.9683
2025-01-15T10:00:03.280Z,-0.0572,0.005241,-1.030842
2025-01-15T10:00:03.320Z,0.036756,-0.012238,-0.990489
2025-01-15T10:00:03.360Z,0.013815,0.048797,-0.987534
2025-01-15T10:00:03.400Z,-0.000625,0.015356,-1.009259
2025-01-15T10:00:03.440Z,0.041433,0.033054,-1.024229
2025-01-15T10:00:03.480Z,0.011956,0.017885,-1.000757
2025-01-15T10:00:03.520Z,0.020752,0.020048,-0.97519
2025-01-15T10:00:03.560Z,0.003813,0.027264,-1.047493
2025-01-15T10:00:03.600Z,0.012678,0.005352,-1.018676
2025-01-15T10:00:03.640Z,0.003542,-0.013335,-1.072938
2025-01-15T10:00:03.680Z,-0.04105,0.034985,-0.986809
2025-01-15T10:00:03.720Z,-0.031051,0.038549,-1.068596
2025-01-15T10:00:03.760Z,0.040467,-0.024202,-0.988485
2025-01-15T10:00:03.800Z,0.053305,0.038432,-0.946832
2025-01-15T10:00:03.840Z,-0.015963,0.012368,-0.977555
2025-01-15T10:00:03.880Z,-0.026454,-0.032057,-0.951815
2025-01-15T10:00:03.920Z,-1.116011,0.000947,-1.032836
2025-01-15T10:00:03.960Z,-0.002467,0.018277,-0.968181
2025-01-15T10:00:04.000Z,-0.081129,-1.138909,-1.080071
2025-01-15T10:00:04.040Z,0.033291,-0.011457,-0.975086
2025-01-15T10:00:04.080Z,-0.01681,-0.041456,-1.046336
2025-01-15T10:00:04.120Z,0.012471,0.014325,-1.026869
2025-01-15T10:00:04.160Z,0.02037,0.006202,-1.010532
2025-01-15T10:00:04.200Z,0.034671,-0.03994,-0.989641
2025-01-15T10:00:04.240Z,-0.059767,-0.063906,-0.980921
2025-01-15T10:00:04.280Z,-0.019232,-0.009772,-0.97838
2025-01-15T10:00:04.320Z,0.0284,-0.031984,-0.996979
2025-01-15T10:00:04.360Z,0.030861,0.016463,-1.0064
2025-01-15T10:00:04.400Z,-0.03422,0.008624,-0.984701
2025-01-15T10:00:04.440Z,-0.065417,0.009465,-1.018394
2025-01-15T10:00:04.480Z,0.033976,0.048293,-1.015454
2025-01-15T10:00:04.520Z,0.003535,-0.000322,-0.989652
2025-01-15T10:00:04.560Z,0.032795,0.001616,-0.986627
2025-01-15T10:00:04.600Z,-0.021391,-0.001677,-1.031165
2025-01-15T10:00:04.640Z,-0.041226,0.035413,-0.979936
2025-01-15T10:00:04.680Z,0.01981,-0.071773,-0.961471
2025-01-15T10:00:04.720Z,0.035647,0.062868,-0.970979
2025-01-15T10:00:04.760Z,0.028759,-0.021438,-0.998458
2025-01-15T10:00:04.800Z,0.012438,-0.03,-1.054382
2025-01-15T10:00:04.840Z,-0.025783,-0.030855,-1.03592
2025-01-15T10:00:04.880Z,0.019024,0.017242,-1.007701
2025-01-15T10:00:04.920Z,0.035825,-0.013237,-0.974871
2025-01-15T10:00:04.960Z,0.011198,-0.013584,-0.925518
2025-01-15T10:00:05.000Z,0.010731,0.004524,-1.002251
2025-01-15T10:00:05.040Z,0.018731,0.016381,-1.006326
2025-01-15T10:00:05.080Z,0.014579,0.032806,-1.021198
2025-01-15T10:00:05.120Z,0.021718,-0.024197,-0.191924
2025-01-15T10:00:05.160Z,0.036173,-0.059824,-0.945784
2025-01-15T10:00:05.200Z,0.018722,-0.078317,-0.991696
2025-01-15T10:00:05.240Z,-0.001865,0.00768,-0.945697
2025-01-15T10:00:05.280Z,-0.003014,-0.005497,-1.012406
2025-01-15T10:00:05.320Z,0.029516,-0.002509,-0.983675
2025-01-15T10:00:05.360Z,0.009546,-0.012661,-0.962489
2025-01-15T10:00:05.400Z,0.003756,-0.025372,-0.980546
2025-01-15T10:00:05.440Z,0.000689,0.01137,-0.946164
2025-01-15T10:00:05.480Z,-0.029676,-0.020959,-0.976587
2025-01-15T10:00:05.520Z,-0.046608,0.054646,-1.048186
2025-01-15T10:00:05.560Z,-0.024338,-0.012948,-0.970667
2025-01-15T10:00:05.600Z,-0.028739,0.043696,-1.034991
2025-01-15T10:00:05.640Z,0.031189,-0.008711,-0.982178
2025-01-15T10:00:05.680Z,0.063049,-0.028864,-0.967625
2025-01-15T10:00:05.720Z,-0.005374,0.005743,-1.0076
2025-01-15T10:00:05.760Z,0.033444,-0.004537,-0.973379
2025-01-15T10:00:05.800Z,-0.773107,-0.031623,-0.987724
2025-01-15T10:00:05.840Z,0.005412,-0.000758,-0.993105
2025-01-15T10:00:05.880Z,0.024725,0.021964,-0.060247
2025-01-15T10:00:05.920Z,-0.008844,-0.041686,-0.962685
2025-01-15T10:00:05.960Z,0.000981,-0.018067,-0.958574
2025-01-15T10:00:06.000Z,0.009658,0.001138,-0.986092
2025-01-15T10:00:06.040Z,0.025577,-0.036189,-0.974992
2025-01-15T10:00:06.080Z,-0.000351,-0.023729,-1.04199
2025-01-15T10:00:06.120Z,0.001959,0.047137,-0.948596
2025-01-15T10:00:06.160Z,-0.006753,-0.01697,-0.941606
2025-01-15T10:00:06.200Z,-0.007558,-0.046666,-0.951173
2025-01-15T10:00:06.240Z,0.051423,0.007654,-0.96648
2025-01-15T10:00:06.280Z,-0.036516,-0.083274,-1.047435
2025-01-15T10:00:06.320Z,0.016903,0.018732,-0.974453
2025-01-15T10:00:06.360Z,0.024798,-1.246697,-0.977602
2025-01-15T10:00:06.400Z,-0.051126,0.014414,-0.933478
2025-01-15T10:00:06.440Z,0.031298,-0.048641,-1.032299
2025-01-15T10:00:06.480Z,-0.00025,-0.018191,-0.89857
2025-01-15T10:00:06.520Z,-0.01337,-1.039822,-1.048545
2025-01-15T10:00:06.560Z,-3.9e-05,-0.019517,-0.96562
2025-01-15T10:00:06.600Z,0.014942,0.050654,-1.011079
2025-01-15T10:00:06.640Z,0.018845,0.024143,-1.018588
2025-01-15T10:00:06.680Z,-0.013696,0.005743,-0.976905
2025-01-15T10:00:06.720Z,0.041572,0.047977,-0.970764
2025-01-15T10:00:06.760Z,0.041634,-0.03666,-0.926417
2025-01-15T10:00:06.800Z,0.009568,-0.053121,-1.012457
2025-01-15T10:00:06.840Z,-0.037805,-0.018986,-0.924798
2025-01-15T10:00:06.880Z,-0.044571,0.02693,-0.918888
2025-01-15T10:00:06.920Z,0.010668,0.020021,-1.047606
2025-01-15T10:00:06.960Z,0.033235,0.002046,-1.010513
2025-01-15T10:00:07.000Z,-0.022523,0.022101,-0.992333
2025-01-15T10:00:07.040Z,-0.031112,-0.000121,-0.953129
2025-01-15T10:00:07.080Z,-0.02263,-0.023237,-1.065064
2025-01-15T10:00:07.120Z,-0.006104,0.059396,-0.988944
2025-01-15T10:00:07.160Z,0.001679,0.030556,-1.004794
2025-01-15T10:00:07.200Z,0.03695,-0.016466,-0.972613
2025-01-15T10:00:07.240Z,0.017957,-0.0027,-0.966523
2025-01-15T10:00:07.280Z,-0.025235,0.030864,-1.015975
2025-01-15T10:00:07.320Z,-0.025622,0.006127,-1.013524
2025-01-15T10:00:07.360Z,-0.014648,-0.063142,-0.966278
2025-01-15T10:00:07.400Z,0.010086,0.023936,-0.991302
2025-01-15T10:00:07.440Z,-0.001598,-0.033455,-1.049799
2025-01-15T10:00:07.480Z,-0.017761,0.008782,-0.924043
2025-01-15T10:00:07.520Z,0.004799,0.78039,-1.000879
2025-01-15T10:00:07.560Z,0.015782,-0.003779,-1.00075
2025-01-15T10:00:07.600Z,0.002436,-0.010677,-1.015586
2025-01-15T10:00:07.640Z,0.037354,-0.025765,-0.991469
2025-01-15T10:00:07.680Z,-0.000984,0.008807,-0.975218
2025-01-15T10:00:07.720Z,0.01687,-0.046723,-0.961709
2025-01-15T10:00:07.760Z,0.016654,-0.032112,-0.980612
2025-01-15T10:00:07.800Z,0.004556,-0.025043,-1.027365
2025-01-15T10:00:07.840Z,-0.033974,-0.003233,-0.944422
2025-01-15T10:00:07.880Z,0.029627,-0.036746,-0.920899
2025-01-15T10:00:07.920Z,-0.049389,0.03136,-1.011019
2025-01-15T10:00:07.960Z,0.040001,-0.017925,-0.957177
2025-01-15T10:00:08.000Z,-0.023212,0.018496,-0.902789
2025-01-15T10:00:08.040Z,-0.005331,0.019691,-1.068559
2025-01-15T10:00:08.080Z,0.032799,0.007394,-1.003553
2025-01-15T10:00:08.120Z,0.021363,0.008867,-1.005766
2025-01-15T10:00:08.160Z,-0.015493,0.041565,-1.028704
2025-01-15T10:00:08.200Z,0.001115,0.018975,-1.016692
2025-01-15T10:00:08.240Z,0.031757,-0.061297,-1.004427
2025-01-15T10:00:08.280Z,-0.001734,-0.017791,-1.002001
2025-01-15T10:00:08.320Z,0.008715,-0.017293,-1.031187
2025-01-15T10:00:08.360Z,0.044708,-0.049376,-1.017613
2025-01-15T10:00:08.400Z,-0.004979,0.040058,-1.001197
2025-01-15T10:00:08.440Z,-0.020271,0.020542,-0.946555
2025-01-15T10:00:08.480Z,-0.003431,-0.010573,-1.039636
2025-01-15T10:00:08.520Z,-0.021431,-0.051281,-0.98571
2025-01-15T10:00:08.560Z,-0.011111,0.030641,-0.982369
2025-01-15T10:00:08.600Z,0.009504,0.07593,-0.959735
2025-01-15T10:00:08.640Z,0.017608,0.008911,-1.012474
2025-01-15T10:00:08.680Z,-0.012757,-0.033374,-0.940673
2025-01-15T10:00:08.720Z,-0.027761,0.007112,-1.006163
2025-01-15T10:00:08.760Z,0.007124,-0.003344,-1.033059
2025-01-15T10:00:08.800Z,-0.015883,0.01065,-0.991246
2025-01-15T10:00:08.840Z,0.024973,0.003481,-0.954657
2025-01-15T10:00:08.880Z,-0.021885,0.003222,-0.970398
2025-01-15T10:00:08.920Z,0.013883,-0.065211,-1.039142
2025-01-15T10:00:08.960Z,0.002181,-0.040244,-1.042773
2025-01-15T10:00:09.000Z,1.004513,0.023369,-0.955437
2025-01-15T10:00:09.040Z,-0.015725,0.016377,-1.039228
2025-01-15T10:00:09.080Z,-0.050191,0.01481,-0.976383
2025-01-15T10:00:09.120Z,0.038975,0.00748,-1.03581
2025-01-15T10:00:09.160Z,-0.805511,0.008365,-1.057596
2025-01-15T10:00:09.200Z,-0.01616,0.007115,-1.046273
2025-01-15T10:00:09.240Z,0.029014,0.01282,-0.968129
2025-01-15T10:00:09.280Z,-0.03284,0.012461,-1.022491
2025-01-15T10:00:09.320Z,0.019787,0.014493,-0.973111
2025-01-15T10:00:09.360Z,0.023483,-0.030503,-1.000914
2025-01-15T10:00:09.400Z,0.001591,0.011043,-1.027682
2025-01-15T10:00:09.440Z,-0.002881,-0.021852,-0.984677
2025-01-15T10:00:09.480Z,-0.021691,0.030376,-0.926406
2025-01-15T10:00:09.520Z,0.004535,0.003542,-1.007824
2025-01-15T10:00:09.560Z,0.001725,0.019228,-1.026003
2025-01-15T10:00:09.600Z,-0.000345,0.015062,-0.938576
2025-01-15T10:00:09.640Z,0.008544,0.017133,-1.02524
2025-01-15T10:00:09.680Z,0.040527,-0.019677,-0.98575
2025-01-15T10:00:09.720Z,0.012305,-0.000331,-1.007756
2025-01-15T10:00:09.760Z,0.060747,-0.005513,-1.041999
2025-01-15T10:00:09.800Z,0.032046,-0.032589,-0.960826
2025-01-15T10:00:09.840Z,-0.021475,0.012933,-1.011996
2025-01-15T10:00:09.880Z,-0.049068,-0.028302,-0.99415
2025-01-15T10:00:09.920Z,0.018746,0.007924,-0.916806
2025-01-15T10:00:09.960Z,0.003359,-0.041725,-0.958365
2025-01-15T10:00:10.000Z,-0.033438,-0.047475,-0.916377
2025-01-15T10:00:10.040Z,0.023063,-0.0229,-1.065605
2025-01-15T10:00:10.080Z,0.017649,-0.013823,-0.981227
2025-01-15T10:00:10.120Z,0.013215,0.013912,-1.018315
2025-01-15T10:00:10.160Z,0.011768,-0.021827,-0.994318
2025-01-15T10:00:10.200Z,-0.023605,-0.004388,-1.007503
2025-01-15T10:00:10.240Z,0.025986,-0.002163,-0.952391
2025-01-15T10:00:10.280Z,0.00784,-0.019459,-0.989301
2025-01-15T10:00:10.320Z,-0.01003,-0.03811,-1.020961
2025-01-15T10:00:10.360Z,0.001921,-0.031585,-0.999714
2025-01-15T10:00:10.400Z,0.019158,0.018488,-0.966887
2025-01-15T10:00:10.440Z,0.014307,-0.030193,-0.958025
2025-01-15T10:00:10.480Z,-0.044504,0.033151,-1.026943
2025-01-15T10:00:10.520Z,0.068632,-0.054652,-1.014518
2025-01-15T10:00:10.560Z,0.030323,-0.019902,-0.886213
2025-01-15T10:00:10.600Z,-0.106324,-0.000549,-0.972383
2025-01-15T10:00:10.640Z,-0.030069,0.055458,-0.950032
2025-01-15T10:00:10.680Z,-0.004951,0.041426,-0.976589
2025-01-15T10:00:10.720Z,0.001086,-0.042367,-0.9837
2025-01-15T10:00:10.760Z,-0.008356,0.026897,-1.002865
2025-01-15T10:00:10.800Z,-0.022106,0.041549,-0.931308
2025-01-15T10:00:10.840Z,-0.038555,-0.029739,-0.163005
2025-01-15T10:00:10.880Z,-0.004199,-0.019484,-0.974067
2025-01-15T10:00:10.920Z,0.014101,-0.032082,-1.022109
2025-01-15T10:00:10.960Z,-0.010148,5.5e-05,-0.991683
2025-01-15T10:00:11.000Z,0.005264,-0.003975,-1.027357
2025-01-15T10:00:11.040Z,0.00071,0.005759,-1.034186
2025-01-15T10:00:11.080Z,-0.027014,-0.025248,-0.990106
2025-01-15T10:00:11.120Z,0.026033,0.013299,-0.98912
2025-01-15T10:00:11.160Z,0.014074,0.004124,-0.999708
2025-01-15T10:00:11.200Z,-0.033179,0.032474,-1.065866
2025-01-15T10:00:11.240Z,-0.020536,-0.02126,-1.057766
2025-01-15T10:00:11.280Z,0.821285,-0.016589,-1.081212
2025-01-15T10:00:11.320Z,-0.001383,0.001222,-0.975705
2025-01-15T10:00:11.360Z,-0.027997,0.032181,0.047401
2025-01-15T10:00:11.400Z,0.014182,0.036126,-1.031051
2025-01-15T10:00:11.440Z,0.998858,-0.053892,-1.036364
2025-01-15T10:00:11.480Z,0.018125,0.03638,-1.020612
2025-01-15T10:00:11.520Z,-0.001734,-0.024234,-0.997597
2025-01-15T10:00:11.560Z,0.00105,0.022075,-1.040852
2025-01-15T10:00:11.600Z,0.021778,0.041417,-0.959212
2025-01-15T10:00:11.640Z,0.055747,0.016689,-1.018691
2025-01-15T10:00:11.680Z,-0.032632,0.021476,-0.945082
2025-01-15T10:00:11.720Z,0.001053,0.007782,-1.001476
2025-01-15T10:00:11.760Z,0.036041,-0.104424,-1.051108
2025-01-15T10:00:11.800Z,0.006819,-0.006755,-1.006878
2025-01-15T10:00:11.840Z,-0.029806,-0.002092,-1.022147
2025-01-15T10:00:11.880Z,0.06764,-0.027369,-0.942267
2025-01-15T10:00:11.920Z,0.004597,0.005938,-0.963495
2025-01-15T10:00:11.960Z,-0.018686,-0.016198,-0.94334
2025-01-15T10:00:12.000Z,-0.004771,-0.033182,-0.974621
2025-01-15T10:00:12.040Z,0.003679,-0.01541,-1.047282
2025-01-15T10:00:12.080Z,0.013955,-0.087224,-1.016583
2025-01-15T10:00:12.120Z,0.006159,0.04452,-0.962775
2025-01-15T10:00:12.160Z,0.024417,0.007112,-1.053398
2025-01-15T10:00:12.200Z,0.002937,0.018678,-0.981454
2025-01-15T10:00:12.240Z,0.016509,0.018837,-1.108184
2025-01-15T10:00:12.280Z,0.019395,-0.029794,-1.00015
2025-01-15T10:00:12.320Z,0.048864,-0.072698,-0.969598
2025-01-15T10:00:12.360Z,0.017551,0.026167,-1.047528
2025-01-15T10:00:12.400Z,-0.034004,0.029067,-1.030701
2025-01-15T10:00:12.440Z,-0.064316,-0.054228,-0.998837
2025-01-15T10:00:12.480Z,-0.009093,-0.010206,-0.952608
2025-01-15T10:00:12.520Z,0.020668,0.006105,-0.969388
2025-01-15T10:00:12.560Z,0.003226,0.007187,-0.995587
2025-01-15T10:00:12.600Z,0.031431,0.009574,-0.965711
2025-01-15T10:00:12.640Z,-0.014091,0.005673,-0.955291
2025-01-15T10:00:12.680Z,-0.018482,-0.013923,-1.075917
2025-01-15T10:00:12.720Z,0.066178,-0.002079,-1.016651
2025-01-15T10:00:12.760Z,-0.00733,-0.041128,-1.068075
2025-01-15T10:00:12.800Z,0.002302,0.011981,-0.883008
2025-01-15T10:00:12.840Z,-0.015603,-0.015749,-1.004881
2025-01-15T10:00:12.880Z,0.055882,0.015985,-0.988698
2025-01-15T10:00:12.920Z,-0.045186,-0.017928,-1.018543
2025-01-15T10:00:12.960Z,0.038793,-0.014764,-1.007729
2025-01-15T10:00:13.000Z,0.056992,0.020686,-1.006091
2025-01-15T10:00:13.040Z,0.043235,0.038283,-1.0389
2025-01-15T10:00:13.080Z,0.021736,-0.008594,-0.986407
2025-01-15T10:00:13.120Z,-0.027052,0.041282,-1.014285
2025-01-15T10:00:13.160Z,-0.031849,0.005866,-0.997695
2025-01-15T10:00:13.200Z,0.000985,-0.011886,-0.99844
2025-01-15T10:00:13.240Z,0.001017,0.06586,-0.981126
2025-01-15T10:00:13.280Z,0.03337,0.004564,-0.992988
2025-01-15T10:00:13.320Z,-0.016121,-0.034633,-1.06161
2025-01-15T10:00:13.360Z,-0.014457,0.087855,-1.003782
2025-01-15T10:00:13.400Z,-0.025527,0.026186,-0.973192
2025-01-15T10:00:13.440Z,-0.038124,0.012564,-1.026908
2025-01-15T10:00:13.480Z,0.018054,-0.043565,-0.98631
2025-01-15T10:00:13.520Z,0.015138,-0.005216,-0.988333
2025-01-15T10:00:13.560Z,-0.012651,-0.044392,-0.960597
2025-01-15T10:00:13.600Z,0.024148,-0.001982,-1.020214
2025-01-15T10:00:13.640Z,-0.001489,0.026368,-0.968716
2025-01-15T10:00:13.680Z,0.04008,-0.012136,-0.977088
2025-01-15T10:00:13.720Z,-0.039756,-0.044102,-1.0038
2025-01-15T10:00:13.760Z,0.047694,0.029982,-1.006333
2025-01-15T10:00:13.800Z,0.011169,-0.049927,-0.96958
2025-01-15T10:00:13.840Z,-0.00985,0.046255,-1.034713
2025-01-15T10:00:13.880Z,-0.016031,-0.044171,-1.065056
2025-01-15T10:00:13.920Z,0.043909,-0.012853,-1.036399
2025-01-15T10:00:13.960Z,0.00492,-0.025413,-0.935588
2025-01-15T10:00:14.000Z,-0.004334,0.024817,-1.01204
2025-01-15T10:00:14.040Z,-0.046118,0.021596,-0.989246
2025-01-15T10:00:14.080Z,-0.003618,-0.006298,-0.998718
2025-01-15T10:00:14.120Z,0.02972,-0.025408,-0.983174
2025-01-15T10:00:14.160Z,-0.027462,-0.041643,-0.999863
2025-01-15T10:00:14.200Z,-0.029209,0.023823,-1.034096
2025-01-15T10:00:14.240Z,0.011943,0.00425,-0.960545
2025-01-15T10:00:14.280Z,0.031376,0.047975,-0.977629
2025-01-15T10:00:14.320Z,0.048905,-0.038064,-1.009072
2025-01-15T10:00:14.360Z,0.013752,0.000844,-0.942139
2025-01-15T10:00:14.400Z,-0.005336,0.029881,-0.985984
2025-01-15T10:00:14.440Z,0.015899,-0.021135,-1.014519
2025-01-15T10:00:14.480Z,-0.037967,-0.03114,-0.980281
2025-01-15T10:00:14.520Z,0.070158,-0.031144,-0.946482
2025-01-15T10:00:14.560Z,-0.045793,-0.014731,-1.014323
2025-01-15T10:00:14.600Z,0.006782,-0.024763,-0.945032
2025-01-15T10:00:14.640Z,0.021505,0.024586,-0.943321
2025-01-15T10:00:14.680Z,-0.002086,-0.06371,-0.935781
2025-01-15T10:00:14.720Z,-0.016814,0.031147,-0.932364
2025-01-15T10:00:14.760Z,-0.000487,0.00211,-1.049827
2025-01-15T10:00:14.800Z,-0.021936,0.008779,-0.976379
2025-01-15T10:00:14.840Z,0.021604,-0.014263,-1.008411
2025-01-15T10:00:14.880Z,-0.028309,0.006493,-1.016095
2025-01-15T10:00:14.920Z,-0.037831,-0.006653,-1.011617
2025-01-15T10:00:14.960Z,-0.005407,0.018445,-1.063598
2025-01-15T10:00:15.000Z,0.012565,0.001832,-1.026143
2025-01-15T10:00:15.040Z,0.003229,1.09314,-1.043859
2025-01-15T10:00:15.080Z,-0.002831,-0.004837,-1.006741
2025-01-15T10:00:15.120Z,-0.027878,0.036357,-0.954266
2025-01-15T10:00:15.160Z,0.929364,-0.001597,-1.023983
2025-01-15T10:00:15.200Z,0.018883,-0.008687,-0.938606
2025-01-15T10:00:15.240Z,-0.010769,-0.038826,-1.023139
2025-01-15T10:00:15.280Z,-0.011399,0.017054,-0.987989
2025-01-15T10:00:15.320Z,0.004861,-0.006583,-1.048732
2025-01-15T10:00:15.360Z,0.019559,-0.016938,-1.092116
2025-01-15T10:00:15.400Z,-0.009101,-0.017965,-1.023074
2025-01-15T10:00:15.440Z,-0.012129,0.027996,-1.000921
2025-01-15T10:00:15.480Z,0.005938,-0.024415,-0.938873
2025-01-15T10:00:15.520Z,-0.031225,-0.023925,-0.992924
2025-01-15T10:00:15.560Z,0.019153,0.028581,-0.963695
2025-01-15T10:00:15.600Z,0.004935,-0.024359,-1.0212
2025-01-15T10:00:15.640Z,-0.025307,-0.012366,-1.006279
2025-01-15T10:00:15.680Z,-0.003697,-0.004,-1.018575
2025-01-15T10:00:15.720Z,-0.080064,-0.037999,-1.047378
2025-01-15T10:00:15.760Z,0.02572,-0.009168,-1.03341
2025-01-15T10:00:15.800Z,-0.001736,0.046765,-0.987817
2025-01-15T10:00:15.840Z,0.001515,-0.021349,-1.04225
2025-01-15T10:00:15.880Z,-0.02567,0.017162,-0.965936
2025-01-15T10:00:15.920Z,-0.044131,0.028315,-1.016539
2025-01-15T10:00:15.960Z,-0.014982,0.029937,-0.977097
2025-01-15T10:00:16.000Z,-0.033914,0.01155,-0.949852
2025-01-15T10:00:16.040Z,-0.029561,0.037092,-0.982483
2025-01-15T10:00:16.080Z,-0.02956,0.02917,-0.98531
2025-01-15T10:00:16.120Z,0.010181,-0.007082,-1.002203
2025-01-15T10:00:16.160Z,0.059851,-0.008773,-1.001555
2025-01-15T10:00:16.200Z,-0.02394,0.052078,-0.961719
2025-01-15T10:00:16.240Z,0.034645,0.070926,-0.990022
2025-01-15T10:00:16.280Z,-0.019165,-0.013344,-0.971926
2025-01-15T10:00:16.320Z,-0.046956,-0.03211,-0.977045
2025-01-15T10:00:16.360Z,0.002895,0.007524,-0.994437
2025-01-15T10:00:16.400Z,0.031359,0.021231,-1.066897
2025-01-15T10:00:16.440Z,0.027625,0.074163,-1.000374
2025-01-15T10:00:16.480Z,0.012907,0.037724,-0.953544
2025-01-15T10:00:16.520Z,0.024461,0.009763,-0.989581
2025-01-15T10:00:16.560Z,0.004644,-0.012709,-1.021039
2025-01-15T10:00:16.600Z,0.032057,0.808936,-0.974544
2025-01-15T10:00:16.640Z,-0.007284,-0.00733,-1.027572
2025-01-15T10:00:16.680Z,-0.067158,0.015416,-0.981354
2025-01-15T10:00:16.720Z,-0.047599,-0.033585,-0.984545
2025-01-15T10:00:16.760Z,0.007443,0.012775,-0.994051
2025-01-15T10:00:16.800Z,0.006678,0.014146,-0.996792
2025-01-15T10:00:16.840Z,-0.061177,-0.019858,-0.975254
2025-01-15T10:00:16.880Z,0.793495,0.034981,-0.985204
2025-01-15T10:00:16.920Z,0.041066,-1.167133,-1.025524
2025-01-15T10:00:16.960Z,-0.023817,-0.018458,-0.974861
2025-01-15T10:00:17.000Z,-0.020684,0.067538,-1.018206
2025-01-15T10:00:17.040Z,0.070586,0.037054,-1.060308
2025-01-15T10:00:17.080Z,-0.00084,0.000232,-1.019778
2025-01-15T10:00:17.120Z,0.033634,-0.023661,-1.027811
2025-01-15T10:00:17.160Z,0.012176,-0.012008,-1.008567
2025-01-15T10:00:17.200Z,0.02769,-0.015303,-1.000374
2025-01-15T10:00:17.240Z,-0.022883,0.015453,-0.959968
2025-01-15T10:00:17.280Z,0.004809,-0.020554,-1.044633
2025-01-15T10:00:17.320Z,0.004822,9.9e-05,-0.945579
2025-01-15T10:00:17.360Z,-0.100025,-0.002338,-1.043991
2025-01-15T10:00:17.400Z,0.006051,0.014841,-1.063448
2025-01-15T10:00:17.440Z,0.02066,-0.021704,-1.007644
2025-01-15T10:00:17.480Z,-0.039002,-0.006294,-0.992203
2025-01-15T10:00:17.520Z,-0.082118,0.067576,-1.014497
2025-01-15T10:00:17.560Z,0.015889,0.008538,-1.033669
2025-01-15T10:00:17.600Z,-0.012369,0.005482,-0.954125
2025-01-15T10:00:17.640Z,0.040445,0.083439,-1.037045
2025-01-15T10:00:17.680Z,0.048681,0.024945,-0.966698
2025-01-15T10:00:17.720Z,-0.013805,0.017773,-1.01324
2025-01-15T10:00:17.760Z,0.000883,0.008541,-0.975767
2025-01-15T10:00:17.800Z,-0.043609,-0.072775,-0.955746
2025-01-15T10:00:17.840Z,0.041296,-0.005967,-1.016145
2025-01-15T10:00:17.880Z,0.02691,0.01233,-0.985651
2025-01-15T10:00:17.920Z,-0.012272,0.0224,-1.002504
2025-01-15T10:00:17.960Z,-0.001115,0.01462,-0.993777
2025-01-15T10:00:18.000Z,-0.007205,-0.07107,-1.059032
2025-01-15T10:00:18.040Z,-0.024352,0.036916,-1.030719
2025-01-15T10:00:18.080Z,0.003028,-0.041267,-1.03221
2025-01-15T10:00:18.120Z,-0.071451,-0.007648,-1.053466
2025-01-15T10:00:18.160Z,-0.015732,0.000855,-0.915807
2025-01-15T10:00:18.200Z,0.028299,0.010558,-1.051712
2025-01-15T10:00:18.240Z,0.031656,0.036676,-1.081608
2025-01-15T10:00:18.280Z,0.022553,-0.018099,-1.000534
2025-01-15T10:00:18.320Z,0.033655,0.00829,-0.997564
2025-01-15T10:00:18.360Z,-0.058473,0.022399,-0.900267
2025-01-15T10:00:18.400Z,0.00993,-0.009807,-0.933195
2025-01-15T10:00:18.440Z,0.046721,-0.011818,-1.063542
2025-01-15T10:00:18.480Z,-0.039521,-0.01732,-1.001374
2025-01-15T10:00:18.520Z,0.019985,0.018186,-0.996718
2025-01-15T10:00:18.560Z,0.034792,0.037948,-1.022025
2025-01-15T10:00:18.600Z,-0.014767,0.062285,-1.045242
2025-01-15T10:00:18.640Z,0.088063,-0.02155,-0.973431
2025-01-15T10:00:18.680Z,-0.01198,-0.016567,-0.900326
2025-01-15T10:00:18.720Z,0.003068,0.006593,-0.983404
2025-01-15T10:00:18.760Z,0.042794,-0.030276,-1.003009
2025-01-15T10:00:18.800Z,-0.000997,0.030366,-1.025465
2025-01-15T10:00:18.840Z,0.030594,-0.000864,-1.015558
2025-01-15T10:00:18.880Z,-0.01262,-0.035284,-1.028206
2025-01-15T10:00:18.920Z,0.039619,0.017504,-1.015165
2025-01-15T10:00:18.960Z,0.017787,-0.022201,-1.050172
2025-01-15T10:00:19.000Z,0.041779,0.01757,-1.003508
2025-01-15T10:00:19.040Z,-0.038994,-0.004808,-0.981618
2025-01-15T10:00:19.080Z,-0.018604,0.001765,-1.024576
2025-01-15T10:00:19.120Z,0.023801,-0.006735,-0.973272
2025-01-15T10:00:19.160Z,0.045938,-0.008241,-0.940428
2025-01-15T10:00:19.200Z,0.01507,-0.007137,-0.915593
2025-01-15T10:00:19.240Z,-0.004593,0.011577,-1.001123
2025-01-15T10:00:19.280Z,-0.027668,0.002881,-1.021598
2025-01-15T10:00:19.320Z,-0.025116,-0.01702,-0.963719
2025-01-15T10:00:19.360Z,-0.012998,-0.032406,-0.957122
2025-01-15T10:00:19.400Z,-0.03507,0.001858,-0.988473
2025-01-15T10:00:19.440Z,0.024622,-0.054781,-0.95292
2025-01-15T10:00:19.480Z,-0.01045,-0.031411,-0.970029
2025-01-15T10:00:19.520Z,0.02432,0.030224,-0.994889
2025-01-15T10:00:19.560Z,-0.054922,-0.033305,-0.953515
2025-01-15T10:00:19.600Z,0.024114,0.041727,-1.008681
2025-01-15T10:00:19.640Z,-0.025862,0.000143,-1.010112
2025-01-15T10:00:19.680Z,0.04923,-0.00943,-0.995605
2025-01-15T10:00:19.720Z,-0.044277,0.005466,-0.977813
2025-01-15T10:00:19.760Z,0.015308,-0.016383,-1.012018
2025-01-15T10:00:19.800Z,-0.004727,0.072151,-0.99085
2025-01-15T10:00:19.840Z,-0.053135,0.032907,-1.051392
2025-01-15T10:00:19.880Z,0.035218,0.009639,-0.987842
2025-01-15T10:00:19.920Z,-0.046762,0.044724,-1.02589
2025-01-15T10:00:19.960Z,-0.028671,-0.00086,-1.039556
2025-01-15T10:00:20.000Z,0.021466,0.037335,-1.04905
2025-01-15T10:00:20.040Z,-0.048342,-0.001996,-1.029238
2025-01-15T10:00:20.080Z,-0.03017,-0.01025,-1.029703
2025-01-15T10:00:20.120Z,0.001215,-0.026922,-1.052258
2025-01-15T10:00:20.160Z,-0.00225,0.006823,-0.991614
2025-01-15T10:00:20.200Z,-0.010996,0.011675,-1.087687
2025-01-15T10:00:20.240Z,0.006843,-0.024525,-1.016014
2025-01-15T10:00:20.280Z,-0.003634,-0.041916,-1.037601
2025-01-15T10:00:20.320Z,-0.054437,-0.009849,-0.983884
2025-01-15T10:00:20.360Z,0.867631,0.009488,-1.005141
2025-01-15T10:00:20.400Z,0.044601,-0.001088,-0.98548
2025-01-15T10:00:20.440Z,-0.009191,0.017266,-1.082272
2025-01-15T10:00:20.480Z,-0.01577,0.05129,-1.068713
2025-01-15T10:00:20.520Z,-0.028382,-0.038233,-0.970222
2025-01-15T10:00:20.560Z,-0.007426,0.016764,-0.971845
2025-01-15T10:00:20.600Z,0.031796,-0.039553,-0.979248
2025-01-15T10:00:20.640Z,-0.013857,-0.001473,-0.971124
2025-01-15T10:00:20.680Z,0.041196,-0.011782,-1.018551
2025-01-15T10:00:20.720Z,0.013332,-0.01219,-0.98791
2025-01-15T10:00:20.760Z,0.002474,0.042894,-0.977011
2025-01-15T10:00:20.800Z,-0.016071,-0.020834,-0.944682
2025-01-15T10:00:20.840Z,-0.003658,0.018447,-1.033963
2025-01-15T10:00:20.880Z,0.009158,0.007107,-0.99761
2025-01-15T10:00:20.920Z,-0.03155,-0.000279,-0.921626
2025-01-15T10:00:20.960Z,-0.056967,-0.027806,-0.90304
2025-01-15T10:00:21.000Z,0.022725,-0.011933,-1.00868
2025-01-15T10:00:21.040Z,-0.029936,-0.032403,-0.989461
2025-01-15T10:00:21.080Z,0.04745,0.069989,-1.028681
2025-01-15T10:00:21.120Z,0.010549,-0.031213,-0.970524
2025-01-15T10:00:21.160Z,0.009335,0.001254,-0.950416
2025-01-15T10:00:21.200Z,-0.017742,-0.007544,-1.006002
2025-01-15T10:00:21.240Z,-0.0171,-0.009502,-0.983927
2025-01-15T10:00:21.280Z,0.029589,0.005859,-0.981766
2025-01-15T10:00:21.320Z,-0.004409,0.026655,-1.083257
2025-01-15T10:00:21.360Z,-0.038346,-0.050947,-0.984666
2025-01-15T10:00:21.400Z,0.023103,-0.000815,-1.007782
2025-01-15T10:00:21.440Z,0.023188,0.00252,-1.04164
2025-01-15T10:00:21.480Z,0.018441,0.039365,-0.999394
2025-01-15T10:00:21.520Z,-0.063109,-0.001281,-1.03121
2025-01-15T10:00:21.560Z,0.056126,0.045424,-0.970706
2025-01-15T10:00:21.600Z,0.025737,-0.027445,-0.98266
2025-01-15T10:00:21.640Z,0.041342,0.049281,-1.05066
2025-01-15T10:00:21.680Z,0.001483,-0.039652,-1.090103
2025-01-15T10:00:21.720Z,-0.006033,-0.005422,-0.948591
2025-01-15T10:00:21.760Z,-0.013673,0.092636,-0.944977
2025-01-15T10:00:21.800Z,-0.015052,-0.029205,-0.975847
2025-01-15T10:00:21.840Z,-0.030253,-0.047734,-1.015597
2025-01-15T10:00:21.880Z,-0.012203,-0.040011,-1.017595
2025-01-15T10:00:21.920Z,0.007118,0.009892,-1.004597
2025-01-15T10:00:21.960Z,-0.026217,0.002581,-1.016513
2025-01-15T10:00:22.000Z,-0.004698,-0.000198,-0.984881
2025-01-15T10:00:22.040Z,-0.053303,0.01316,-0.990413
2025-01-15T10:00:22.080Z,0.046031,-0.009188,-0.893012
2025-01-15T10:00:22.120Z,0.009454,-0.020642,-1.00929
2025-01-15T10:00:22.160Z,-0.008429,0.041829,-1.038728
2025-01-15T10:00:22.200Z,-0.04074,0.028944,-1.05452
2025-01-15T10:00:22.240Z,0.026628,-0.021248,-1.033583
2025-01-15T10:00:22.280Z,-0.016067,-0.035138,-1.010867
2025-01-15T10:00:22.320Z,-0.027943,-0.01585,-0.994863
2025-01-15T10:00:22.360Z,1.116336,-0.028052,-0.977928
2025-01-15T10:00:22.400Z,-0.033991,-0.011676,-1.046282
2025-01-15T10:00:22.440Z,-0.003465,0.006143,-0.993154
2025-01-15T10:00:22.480Z,0.019464,0.004998,-1.043307
2025-01-15T10:00:22.520Z,-0.027199,-0.010658,-0.96528
2025-01-15T10:00:22.560Z,-0.018595,-0.013845,-1.011591
2025-01-15T10:00:22.600Z,-0.041011,0.005736,-1.011501
2025-01-15T10:00:22.640Z,0.012999,-0.000689,-0.983975
2025-01-15T10:00:22.680Z,-0.009731,-0.015232,-1.027349
2025-01-15T10:00:22.720Z,0.003256,-0.018657,-1.022793
2025-01-15T10:00:22.760Z,0.012313,0.036768,-0.984483
2025-01-15T10:00:22.800Z,-0.011249,0.005947,-0.976493
2025-01-15T10:00:22.840Z,-0.03313,0.081332,-0.955876
2025-01-15T10:00:22.880Z,-0.030194,0.024802,-1.030064
2025-01-15T10:00:22.920Z,0.02301,-0.040047,-1.027302
2025-01-15T10:00:22.960Z,0.013393,0.02349,-0.930897
2025-01-15T10:00:23.000Z,0.024587,0.043131,-0.943542
2025-01-15T10:00:23.040Z,0.035664,-0.018726,-1.040795
2025-01-15T10:00:23.080Z,-0.015682,-0.049835,-1.03014
2025-01-15T10:00:23.120Z,-0.012971,-0.019241,-1.022241
2025-01-15T10:00:23.160Z,0.022514,0.062061,-1.047248
2025-01-15T10:00:23.200Z,-0.017781,-0.045733,-0.990355
2025-01-15T10:00:23.240Z,0.036637,0.002946,-0.993501
2025-01-15T10:00:23.280Z,0.024788,-0.00859,-1.042701
2025-01-15T10:00:23.320Z,0.008817,-0.01222,-0.990629
2025-01-15T10:00:23.360Z,0.049982,-0.010896,-0.992964
2025-01-15T10:00:23.400Z,-0.002639,0.016459,-0.962288
2025-01-15T10:00:23.440Z,0.011924,0.016781,-0.933531
2025-01-15T10:00:23.480Z,-0.011428,-0.014528,-0.983242
2025-01-15T10:00:23.520Z,0.023701,0.020176,-0.932739
2025-01-15T10:00:23.560Z,-0.01017,-0.022665,-0.942675
2025-01-15T10:00:23.600Z,0.030975,-0.014971,-1.072602
2025-01-15T10:00:23.640Z,-0.00339,0.035554,-1.055528
2025-01-15T10:00:23.680Z,-0.04096,-0.021837,-1.038481
2025-01-15T10:00:23.720Z,-0.022979,0.0443,-1.031627
2025-01-15T10:00:23.760Z,-0.013937,0.033652,-1.043601
2025-01-15T10:00:23.800Z,-0.02224,0.047548,-0.943894
2025-01-15T10:00:23.840Z,-0.019462,0.022031,-1.024856
2025-01-15T10:00:23.880Z,0.043144,-0.025224,-0.898921
2025-01-15T10:00:23.920Z,0.002133,-0.032619,-1.041948
2025-01-15T10:00:23.960Z,-0.031327,0.010315,-0.95858
2025-01-15T10:00:24.000Z,-0.001074,0.016582,-1.015639
2025-01-15T10:00:24.040Z,0.006524,0.005315,-0.987654
2025-01-15T10:00:24.080Z,0.034175,-0.012706,-1.020278
2025-01-15T10:00:24.120Z,-0.024765,-0.051373,-1.002081
2025-01-15T10:00:24.160Z,0.032751,0.015517,-1.026816
2025-01-15T10:00:24.200Z,0.006267,-0.035257,-1.015613
2025-01-15T10:00:24.240Z,-0.000494,-0.028203,-1.003355
2025-01-15T10:00:24.280Z,0.008157,-0.029682,-0.987526
2025-01-15T10:00:24.320Z,0.028184,-0.001091,-1.017707
2025-01-15T10:00:24.360Z,0.037675,0.044869,-1.03849
2025-01-15T10:00:24.400Z,-0.017494,-0.028312,-0.9924
2025-01-15T10:00:24.440Z,-0.082726,-0.026826,-1.076348
2025-01-15T10:00:24.480Z,0.004736,0.640863,-0.925053
2025-01-15T10:00:24.520Z,0.01052,0.038251,-1.022984
2025-01-15T10:00:24.560Z,0.010417,-0.001891,-1.016743
2025-01-15T10:00:24.600Z,0.000414,-0.033257,-1.020072
2025-01-15T10:00:24.640Z,-0.024884,0.036669,-1.020417
2025-01-15T10:00:24.680Z,0.027244,0.057496,-0.948342
2025-01-15T10:00:24.720Z,-0.025408,-0.010964,-0.9738
2025-01-15T10:00:24.760Z,0.008592,-0.016674,-1.018165
2025-01-15T10:00:24.800Z,-0.017747,-0.005457,-1.04674
2025-01-15T10:00:24.840Z,-0.017669,-0.001661,-1.060512
2025-01-15T10:00:24.880Z,0.0016,0.011415,-0.997222
2025-01-15T10:00:24.920Z,-0.074643,-0.015561,-1.073567
2025-01-15T10:00:24.960Z,-0.043172,0.022837,-1.003272
2025-01-15T10:00:25.000Z,-0.025446,0.006518,-1.019704
2025-01-15T10:00:25.040Z,-0.004902,0.051602,-0.987762
2025-01-15T10:00:25.080Z,-0.069851,-0.002379,-1.005526
2025-01-15T10:00:25.120Z,0.000321,0.009583,-0.968627
2025-01-15T10:00:25.160Z,0.002429,0.024825,-0.997804
2025-01-15T10:00:25.200Z,-0.001962,0.049123,-1.049374
2025-01-15T10:00:25.240Z,0.012258,0.017851,-0.944856
2025-01-15T10:00:25.280Z,0.027263,0.015814,-0.892734
2025-01-15T10:00:25.320Z,-0.047594,0.03177,-0.978684
2025-01-15T10:00:25.360Z,0.00827,0.010968,-1.007369
2025-01-15T10:00:25.400Z,0.049648,-0.038935,-1.038523
2025-01-15T10:00:25.440Z,-0.013161,-0.02031,-0.948469
2025-01-15T10:00:25.480Z,-0.017965,-0.002755,-1.008629
2025-01-15T10:00:25.520Z,0.045703,0.051942,-1.042175
2025-01-15T10:00:25.560Z,-0.011127,0.005299,-0.970715
2025-01-15T10:00:25.600Z,0.064096,0.018682,-1.066382
2025-01-15T10:00:25.640Z,-0.063576,0.011454,-1.02144
2025-01-15T10:00:25.680Z,-0.021902,0.018014,-1.008333
2025-01-15T10:00:25.720Z,-0.023975,0.022259,-0.977822
2025-01-15T10:00:25.760Z,0.037248,0.041083,-1.005338
2025-01-15T10:00:25.800Z,-0.036826,-0.013812,-0.985053
2025-01-15T10:00:25.840Z,0.023982,0.00672,-0.993448
2025-01-15T10:00:25.880Z,0.057375,0.021234,-0.937813
2025-01-15T10:00:25.920Z,-0.004243,0.003818,-1.003867
2025-01-15T10:00:25.960Z,0.030896,0.033464,-1.084076
2025-01-15T10:00:26.000Z,0.004186,0.002976,-1.053288
2025-01-15T10:00:26.040Z,-0.008928,0.063996,-1.018554
2025-01-15T10:00:26.080Z,-0.003484,0.006775,-1.013396
2025-01-15T10:00:26.120Z,0.041045,0.058036,-0.97591
2025-01-15T10:00:26.160Z,-0.047007,0.047868,-1.008827
2025-01-15T10:00:26.200Z,-0.013625,0.015037,-1.005211
2025-01-15T10:00:26.240Z,0.024777,0.003555,-1.022391
2025-01-15T10:00:26.280Z,0.006228,-0.002586,-0.974183
2025-01-15T10:00:26.320Z,-0.033914,-0.016707,-0.970288
2025-01-15T10:00:26.360Z,0.037711,-0.042972,-1.051436
2025-01-15T10:00:26.400Z,-0.051746,0.01523,-0.937327
2025-01-15T10:00:26.440Z,0.001682,0.004742,-0.995213
2025-01-15T10:00:26.480Z,0.033054,0.007781,-1.14019
2025-01-15T10:00:26.520Z,-0.016332,-0.001416,-1.01149
2025-01-15T10:00:26.560Z,-0.007209,0.019645,-1.025631
2025-01-15T10:00:26.600Z,-0.019542,0.007322,-1.021861
2025-01-15T10:00:26.640Z,-0.032699,-0.014575,-1.003256
2025-01-15T10:00:26.680Z,0.015886,0.007183,-1.029696
2025-01-15T10:00:26.720Z,0.019011,-0.02642,-1.008591
2025-01-15T10:00:26.760Z,-0.038105,0.053319,-0.969551
2025-01-15T10:00:26.800Z,-0.021359,0.021908,-0.942897
2025-01-15T10:00:26.840Z,-0.009009,0.021228,-0.961106
2025-01-15T10:00:26.880Z,-0.028903,-0.036735,0.125915
2025-01-15T10:00:26.920Z,-0.003738,-0.040586,-1.060174
2025-01-15T10:00:26.960Z,0.013089,0.015754,-1.079484
2025-01-15T10:00:27.000Z,-0.052729,-0.004959,-0.987451
2025-01-15T10:00:27.040Z,0.010323,-0.037851,-1.00501
2025-01-15T10:00:27.080Z,-0.053554,-0.033741,-0.994561
2025-01-15T10:00:27.120Z,-0.014429,-0.030406,-0.958135
2025-01-15T10:00:27.160Z,0.054747,0.013081,-0.945647
2025-01-15T10:00:27.200Z,-0.038959,-0.049172,-1.044506
2025-01-15T10:00:27.240Z,0.012933,0.003454,-0.93806
2025-01-15T10:00:27.280Z,0.01287,0.010925,-1.029001
2025-01-15T10:00:27.320Z,-0.035463,0.009628,-1.064199
2025-01-15T10:00:27.360Z,-0.02314,-0.007214,-0.925217
2025-01-15T10:00:27.400Z,1.071624,0.047085,-1.005363
2025-01-15T10:00:27.440Z,-0.025699,0.009766,-1.022612
2025-01-15T10:00:27.480Z,-0.026134,-0.033566,-0.961382
2025-01-15T10:00:27.520Z,0.055125,0.037732,-0.964949
2025-01-15T10:00:27.560Z,-8.7e-05,-0.010801,-0.94468
2025-01-15T10:00:27.600Z,0.026476,0.026456,-1.017645
2025-01-15T10:00:27.640Z,0.007258,-0.021397,-1.028656
2025-01-15T10:00:27.680Z,-0.004811,-0.009165,-1.017265
2025-01-15T10:00:27.720Z,-0.010394,-0.02503,-1.915943
2025-01-15T10:00:27.760Z,0.016572,-0.057034,-0.952617
2025-01-15T10:00:27.800Z,0.038372,0.023917,-0.970172
2025-01-15T10:00:27.840Z,-0.042811,-0.027672,-0.989616
2025-01-15T10:00:27.880Z,-0.026401,-0.00246,-1.050853
2025-01-15T10:00:27.920Z,0.006428,0.008696,-1.02342
2025-01-15T10:00:27.960Z,0.054675,0.031832,-1.021496
2025-01-15T10:00:28.000Z,0.03623,0.010977,-1.002941
2025-01-15T10:00:28.040Z,0.013277,-0.011808,-0.992405
2025-01-15T10:00:28.080Z,0.009164,0.019695,-1.025024
2025-01-15T10:00:28.120Z,-0.012,-0.007303,-0.984978
2025-01-15T10:00:28.160Z,-0.01164,-0.017688,-1.008413
2025-01-15T10:00:28.200Z,-0.005686,0.023826,-1.020123
2025-01-15T10:00:28.240Z,0.008466,0.051331,-0.948943
2025-01-15T10:00:28.280Z,0.012192,0.029008,-1.000167
2025-01-15T10:00:28.320Z,0.023578,-0.040518,-0.996227
2025-01-15T10:00:28.360Z,0.027141,0.034123,-1.059742
2025-01-15T10:00:28.400Z,0.019715,0.03669,-1.068277
2025-01-15T10:00:28.440Z,-0.027854,-0.01158,-0.965777
2025-01-15T10:00:28.480Z,0.013129,0.025042,-1.083809
2025-01-15T10:00:28.520Z,0.020735,0.015644,-0.931092
2025-01-15T10:00:28.560Z,0.036192,0.046637,-0.99394
2025-01-15T10:00:28.600Z,0.024732,-0.035436,-1.032763
2025-01-15T10:00:28.640Z,0.003015,0.004457,-0.932297
2025-01-15T10:00:28.680Z,0.046298,-0.068561,-1.015048
2025-01-15T10:00:28.720Z,0.032455,0.022907,-1.027666
2025-01-15T10:00:28.760Z,-0.03047,-0.050324,-1.033424
2025-01-15T10:00:28.800Z,0.014341,0.043702,-1.030137
2025-01-15T10:00:28.840Z,-0.014869,0.023692,-0.947819
2025-01-15T10:00:28.880Z,-0.010639,0.005965,-0.964744
2025-01-15T10:00:28.920Z,0.019554,0.012391,-1.072903
2025-01-15T10:00:28.960Z,0.003987,-0.00038,-0.960346
2025-01-15T10:00:29.000Z,1.006793,-0.021047,-0.943914
2025-01-15T10:00:29.040Z,0.016502,-0.011883,-0.968571
2025-01-15T10:00:29.080Z,0.033237,-0.006292,-1.024256
2025-01-15T10:00:29.120Z,-0.008735,-0.005671,-1.017485
2025-01-15T10:00:29.160Z,-0.848399,0.00047,-1.003235
2025-01-15T10:00:29.200Z,-0.002095,0.03779,-0.952233
2025-01-15T10:00:29.240Z,-0.021499,-0.004873,-1.012691
2025-01-15T10:00:29.280Z,0.032976,-0.016354,-0.973436
2025-01-15T10:00:29.320Z,-0.010068,0.033131,-1.07812
2025-01-15T10:00:29.360Z,0.025035,-0.032988,-1.004734
2025-01-15T10:00:29.400Z,0.036542,-0.049997,-1.729787
2025-01-15T10:00:29.440Z,-0.008687,0.032404,-0.974315
2025-01-15T10:00:29.480Z,0.051752,0.037463,-0.963401
2025-01-15T10:00:29.520Z,0.005016,0.017611,-1.029607
2025-01-15T10:00:29.560Z,-0.030405,0.047047,-0.962282
2025-01-15T10:00:29.600Z,0.017,-0.011874,-0.970663
2025-01-15T10:00:29.640Z,0.026531,-0.028837,-0.963505
2025-01-15T10:00:29.680Z,-0.009526,-0.006669,-0.959119
2025-01-15T10:00:29.720Z,0.006643,-0.027291,-1.043845
2025-01-15T10:00:29.760Z,-0.002823,0.03168,-1.002081
2025-01-15T10:00:29.800Z,0.019989,0.01854,-1.016762
2025-01-15T10:00:29.840Z,-0.044201,-0.024992,-0.915525
2025-01-15T10:00:29.880Z,-1.025132,-0.036014,-1.000986
2025-01-15T10:00:29.920Z,-0.046622,-0.004988,-0.99626
2025-01-15T10:00:29.960Z,0.009792,-0.010737,-0.918813
2025-01-15T10:00:30.000Z,0.0664,0.015293,-0.956855
2025-01-15T10:00:30.040Z,0.005753,-0.037125,-1.050241
2025-01-15T10:00:30.080Z,0.005306,0.034274,-1.041059
2025-01-15T10:00:30.120Z,-0.033532,-0.056733,-1.056931
2025-01-15T10:00:30.160Z,0.045963,-0.006723,-0.922512
2025-01-15T10:00:30.200Z,0.053106,-0.02559,-0.927709
2025-01-15T10:00:30.240Z,0.012361,-0.063221,-1.030426
2025-01-15T10:00:30.280Z,-0.007396,-0.028079,-1.003925
2025-01-15T10:00:30.320Z,-0.039947,-0.011187,-0.920412
2025-01-15T10:00:30.360Z,0.023936,0.04043,-1.107689
2025-01-15T10:00:30.400Z,-0.059426,-0.009994,-1.015976
2025-01-15T10:00:30.440Z,0.03222,0.020932,-0.99845
2025-01-15T10:00:30.480Z,-0.007003,0.001505,-1.041938
2025-01-15T10:00:30.520Z,-0.000815,-0.044768,-1.077731
2025-01-15T10:00:30.560Z,0.039499,0.028727,-1.003419
2025-01-15T10:00:30.600Z,-0.021268,-0.031808,-0.936984
2025-01-15T10:00:30.640Z,-0.013294,-0.012439,-1.002985
2025-01-15T10:00:30.680Z,-1.13539,-0.019546,-1.054873
2025-01-15T10:00:30.720Z,-0.004263,-0.036838,-1.054037
2025-01-15T10:00:30.760Z,-0.044659,-0.008629,-1.067773
2025-01-15T10:00:30.800Z,0.015564,-0.008574,-0.973228
2025-01-15T10:00:30.840Z,-0.013473,-0.017199,-0.978621
2025-01-15T10:00:30.880Z,-0.004427,0.011762,-1.05866
2025-01-15T10:00:30.920Z,0.006214,0.014781,-1.02796
2025-01-15T10:00:30.960Z,0.025843,0.003606,-1.029038
2025-01-15T10:00:31.000Z,0.004417,-0.02372,-0.981922
2025-01-15T10:00:31.040Z,-0.010534,0.017531,-1.009357
2025-01-15T10:00:31.080Z,0.014119,-0.019574,-0.920218
2025-01-15T10:00:31.120Z,0.026724,0.018078,-1.039583
2025-01-15T10:00:31.160Z,-0.01825,-0.006602,-1.08506
2025-01-15T10:00:31.200Z,0.037684,7e-06,-0.985566
2025-01-15T10:00:31.240Z,-0.002711,0.013962,-1.038212
2025-01-15T10:00:31.280Z,-0.0268,0.050419,-0.995698
2025-01-15T10:00:31.320Z,-0.000249,0.039739,-0.990656
2025-01-15T10:00:31.360Z,-0.019231,0.050634,-1.02239
2025-01-15T10:00:31.400Z,-0.00032,-0.015455,-1.056057
2025-01-15T10:00:31.440Z,0.017075,0.034069,-0.991528
2025-01-15T10:00:31.480Z,0.009473,-1.061333,-0.959853
2025-01-15T10:00:31.520Z,-0.027121,-0.057299,-0.972218
2025-01-15T10:00:31.560Z,0.003613,0.043275,-0.99002
2025-01-15T10:00:31.600Z,-0.025626,0.048275,-1.033084
2025-01-15T10:00:31.640Z,-0.033174,0.008408,-1.000173
2025-01-15T10:00:31.680Z,-0.059832,-0.005016,-1.018479
2025-01-15T10:00:31.720Z,0.010325,-0.024896,-1.001129
2025-01-15T10:00:31.760Z,-0.004807,0.001308,-1.00019
2025-01-15T10:00:31.800Z,0.048611,0.030524,-0.241564
2025-01-15T10:00:31.840Z,0.02264,-0.044756,-0.928484
2025-01-15T10:00:31.880Z,0.004918,-0.048075,-1.001129
2025-01-15T10:00:31.920Z,-0.079702,0.000721,-0.939437
2025-01-15T10:00:31.960Z,0.060811,-0.035373,-1.03532
2025-01-15T10:00:32.000Z,0.027258,0.029662,-1.038799
2025-01-15T10:00:32.040Z,0.041812,0.003936,-0.975724
2025-01-15T10:00:32.080Z,0.021102,-0.025915,-1.018524
2025-01-15T10:00:32.120Z,0.007967,0.037491,-0.97666
2025-01-15T10:00:32.160Z,-0.026796,-0.004729,-0.942213
2025-01-15T10:00:32.200Z,-0.001019,0.009073,-1.039795
2025-01-15T10:00:32.240Z,0.058783,-0.052062,-0.959963
2025-01-15T10:00:32.280Z,0.027815,-0.045371,-1.024733
2025-01-15T10:00:32.320Z,0.015147,0.019021,-1.030543
2025-01-15T10:00:32.360Z,-0.009338,0.008037,-1.057529
2025-01-15T10:00:32.400Z,-0.037753,-0.011425,-0.946624
2025-01-15T10:00:32.440Z,0.040156,0.011908,-0.967929
2025-01-15T10:00:32.480Z,0.023415,0.02721,-0.964589
2025-01-15T10:00:32.520Z,0.00483,-0.032965,-1.028413
2025-01-15T10:00:32.560Z,-0.064422,-0.05071,-1.083339
2025-01-15T10:00:32.600Z,0.005512,-0.013136,-1.019212
2025-01-15T10:00:32.640Z,-0.042624,0.020385,-1.015551
2025-01-15T10:00:32.680Z,0.02774,-0.02227,-1.03954
2025-01-15T10:00:32.720Z,0.027013,-0.058358,-0.992417
2025-01-15T10:00:32.760Z,0.036275,-0.024704,-0.962258
2025-01-15T10:00:32.800Z,-0.016701,-0.047545,-1.067383
2025-01-15T10:00:32.840Z,0.039398,0.040945,-1.047489
2025-01-15T10:00:32.880Z,0.012166,-0.03197,-1.004862
2025-01-15T10:00:32.920Z,-0.029096,0.032535,-0.984612
2025-01-15T10:00:32.960Z,0.029969,-0.023535,-0.989013
2025-01-15T10:00:33.000Z,-0.002433,0.062124,-1.000698
2025-01-15T10:00:33.040Z,-0.001913,-0.006546,-1.009391
2025-01-15T10:00:33.080Z,-0.017349,-0.018971,-1.044329
2025-01-15T10:00:33.120Z,-0.010756,-0.00689,-1.00029
2025-01-15T10:00:33.160Z,0.013594,-0.021221,-1.034374
2025-01-15T10:00:33.200Z,0.036119,0.03113,-0.985381
2025-01-15T10:00:33.240Z,-0.039058,0.020444,-1.009196
2025-01-15T10:00:33.280Z,0.031187,0.011805,-0.99609
2025-01-15T10:00:33.320Z,0.0085,0.008656,-0.956868
2025-01-15T10:00:33.360Z,-0.034192,-0.015556,-0.982056
2025-01-15T10:00:33.400Z,0.01353,-0.025755,-1.00473
2025-01-15T10:00:33.440Z,-0.048085,-0.04238,-0.981687
2025-01-15T10:00:33.480Z,-0.069118,-0.03175,-1.013864
2025-01-15T10:00:33.520Z,-0.026876,-0.029344,-0.95662
2025-01-15T10:00:33.560Z,-0.057752,0.005773,-0.961003
2025-01-15T10:00:33.600Z,-0.033522,-0.019991,-0.956099
2025-01-15T10:00:33.640Z,0.018427,0.01222,-1.054467
2025-01-15T10:00:33.680Z,0.046596,0.006772,-0.967523
2025-01-15T10:00:33.720Z,-0.033875,-0.027664,-0.970666
2025-01-15T10:00:33.760Z,0.002048,0.031145,-0.972625
2025-01-15T10:00:33.800Z,0.022583,0.045825,-0.949816
2025-01-15T10:00:33.840Z,-0.030461,-0.007924,-0.999045
2025-01-15T10:00:33.880Z,-0.018562,0.019518,-1.043144
2025-01-15T10:00:33.920Z,0.013261,-0.0602,-1.037712
2025-01-15T10:00:33.960Z,0.084987,0.036866,-1.002468
2025-01-15T10:00:34.000Z,0.027518,0.024767,-1.014384
2025-01-15T10:00:34.040Z,0.017648,-0.024326,-1.043191
2025-01-15T10:00:34.080Z,-0.033631,-0.018123,-1.023277
2025-01-15T10:00:34.120Z,0.00816,-0.013922,-0.924059
2025-01-15T10:00:34.160Z,0.013103,0.043496,-0.959319
2025-01-15T10:00:34.200Z,-0.021638,-0.011193,-0.997844
2025-01-15T10:00:34.240Z,0.005212,-0.054929,-1.026049
2025-01-15T10:00:34.280Z,-0.023978,-0.014731,-1.106113
2025-01-15T10:00:34.320Z,0.007489,0.010789,-1.064543
2025-01-15T10:00:34.360Z,-0.033598,0.036205,-1.009526
2025-01-15T10:00:34.400Z,-0.012932,0.051151,-0.998999
2025-01-15T10:00:34.440Z,-0.016603,-0.006263,-0.924928
2025-01-15T10:00:34.480Z,-0.072847,-0.005283,-1.020788
2025-01-15T10:00:34.520Z,-0.026967,-0.019555,-1.012201
2025-01-15T10:00:34.560Z,-0.006974,-0.045494,-1.018046
2025-01-15T10:00:34.600Z,-0.001276,0.006982,-0.916376
2025-01-15T10:00:34.640Z,0.040387,-0.027484,-1.025156
2025-01-15T10:00:34.680Z,-0.038948,-1.109942,-0.987962
2025-01-15T10:00:34.720Z,0.00302,-0.031613,-0.989346
2025-01-15T10:00:34.760Z,-0.027075,0.046729,-0.980231
2025-01-15T10:00:34.800Z,0.015393,0.016817,-1.080533
2025-01-15T10:00:34.840Z,-0.00087,-0.050691,-1.02374
2025-01-15T10:00:34.880Z,0.082891,-0.017351,-0.987728
2025-01-15T10:00:34.920Z,0.008218,-0.026101,-0.949779
2025-01-15T10:00:34.960Z,0.013969,-0.00757,-0.120496
2025-01-15T10:00:35.000Z,-0.022052,-0.039774,-1.000958
2025-01-15T10:00:35.040Z,0.003279,0.035338,-1.04552
2025-01-15T10:00:35.080Z,-0.025181,0.008011,-1.029548
2025-01-15T10:00:35.120Z,0.003639,-0.027773,-1.074731
2025-01-15T10:00:35.160Z,0.010759,0.0015,-1.040943
2025-01-15T10:00:35.200Z,0.015999,0.024699,-0.941364
2025-01-15T10:00:35.240Z,-0.95073,0.027336,-1.005306
2025-01-15T10:00:35.280Z,-0.022373,0.009505,-1.002697
2025-01-15T10:00:35.320Z,-0.008326,0.029236,-1.008099
2025-01-15T10:00:35.360Z,0.018213,-0.008056,-0.988524
2025-01-15T10:00:35.400Z,-0.024406,0.011786,-1.023171
2025-01-15T10:00:35.440Z,0.014345,-0.002718,-1.03422
2025-01-15T10:00:35.480Z,-0.039976,-0.029288,-0.986248
2025-01-15T10:00:35.520Z,-0.014439,0.00561,-1.032054
2025-01-15T10:00:35.560Z,-0.007089,0.00449,-1.069307
2025-01-15T10:00:35.600Z,0.010942,-0.027625,-0.93857
2025-01-15T10:00:35.640Z,0.025756,-0.058825,-1.031413
2025-01-15T10:00:35.680Z,0.012468,-0.00496,-1.033279
2025-01-15T10:00:35.720Z,-0.030839,-0.007078,-0.919475
2025-01-15T10:00:35.760Z,-0.015301,-0.009122,-0.908577
2025-01-15T10:00:35.800Z,0.007016,0.034876,-1.019336
2025-01-15T10:00:35.840Z,0.010288,-0.012594,-1.089174
2025-01-15T10:00:35.880Z,0.026676,0.021839,-0.970118
2025-01-15T10:00:35.920Z,-0.009226,0.008761,-0.999996
2025-01-15T10:00:35.960Z,-0.038732,0.033848,-0.998307
2025-01-15T10:00:36.000Z,0.820015,-0.005708,-1.004186
2025-01-15T10:00:36.040Z,-0.005616,0.001539,-1.019227
2025-01-15T10:00:36.080Z,0.00471,0.015019,-0.956564
2025-01-15T10:00:36.120Z,0.042244,0.008636,0.054856
2025-01-15T10:00:36.160Z,-0.01753,-0.030446,-0.949845
2025-01-15T10:00:36.200Z,0.001595,0.047406,-0.929282
2025-01-15T10:00:36.240Z,0.041014,0.017701,-0.984126
2025-01-15T10:00:36.280Z,-0.010173,-0.002255,-1.034356
2025-01-15T10:00:36.320Z,-0.007954,-0.02699,-0.956343
2025-01-15T10:00:36.360Z,0.068783,0.02937,-1.06807
2025-01-15T10:00:36.400Z,-0.014885,-0.062849,-0.953048
2025-01-15T10:00:36.440Z,0.02198,0.055958,-0.986453
2025-01-15T10:00:36.480Z,0.036884,-0.006628,-0.993761
2025-01-15T10:00:36.520Z,0.008079,-0.017154,-1.035275
2025-01-15T10:00:36.560Z,0.031823,0.05401,-1.054253
2025-01-15T10:00:36.600Z,0.036602,-0.013272,-1.04469
2025-01-15T10:00:36.640Z,0.006425,0.024683,-0.997928
2025-01-15T10:00:36.680Z,-0.03252,-0.037379,-1.025221
2025-01-15T10:00:36.720Z,0.002958,0.018884,-1.044459
2025-01-15T10:00:36.760Z,0.002333,-0.044463,-1.04485
2025-01-15T10:00:36.800Z,0.029883,0.012679,-1.03405
2025-01-15T10:00:36.840Z,0.051996,-0.014825,-1.011393
2025-01-15T10:00:36.880Z,0.004657,0.013885,-1.010731
2025-01-15T10:00:36.920Z,0.017257,0.02443,-0.990545
2025-01-15T10:00:36.960Z,-0.019797,0.00166,-1.007149
2025-01-15T10:00:37.000Z,-0.047175,-0.020822,-0.997889
2025-01-15T10:00:37.040Z,0.001558,0.028286,-0.990602
2025-01-15T10:00:37.080Z,0.043571,0.039275,-1.059086
2025-01-15T10:00:37.120Z,0.052949,-0.057966,-0.998992
2025-01-15T10:00:37.160Z,-0.018521,-0.005956,-0.995877
2025-01-15T10:00:37.200Z,-0.02516,0.037104,-1.043292
2025-01-15T10:00:37.240Z,-0.021309,0.035317,-0.959112
2025-01-15T10:00:37.280Z,0.016295,0.03223,-0.97655
2025-01-15T10:00:37.320Z,0.018519,0.016344,-1.001021
2025-01-15T10:00:37.360Z,0.067249,0.018117,-1.01861
2025-01-15T10:00:37.400Z,0.041391,-0.039067,0.02618
2025-01-15T10:00:37.440Z,0.00625,0.00438,-0.996708
2025-01-15T10:00:37.480Z,-0.024242,0.01932,-1.007671
2025-01-15T10:00:37.520Z,-0.037603,0.004149,-1.051355
2025-01-15T10:00:37.560Z,-0.012966,0.004492,-0.993573
2025-01-15T10:00:37.600Z,2.7e-05,0.027914,-0.966046
2025-01-15T10:00:37.640Z,0.039465,0.052459,-1.068879
2025-01-15T10:00:37.680Z,-0.020576,0.012413,-1.034639
2025-01-15T10:00:37.720Z,-0.064644,0.002597,-1.023968
2025-01-15T10:00:37.760Z,-0.014202,0.034429,-1.014215
2025-01-15T10:00:37.800Z,-0.031592,0.040744,-1.057152
2025-01-15T10:00:37.840Z,-0.010478,0.004752,-1.005021
2025-01-15T10:00:37.880Z,-0.055372,0.017247,-1.033263
2025-01-15T10:00:37.920Z,-0.016866,0.024691,-0.968487
2025-01-15T10:00:37.960Z,0.013773,0.002647,-0.956101
2025-01-15T10:00:38.000Z,-1.177734,0.029844,-0.966357
2025-01-15T10:00:38.040Z,0.065632,0.019542,-0.998739
2025-01-15T10:00:38.080Z,-0.009274,0.034758,-1.04286
2025-01-15T10:00:38.120Z,0.031006,0.042065,-1.046521
2025-01-15T10:00:38.160Z,0.014958,0.002839,-0.913183
2025-01-15T10:00:38.200Z,0.066653,0.070927,-0.942009
2025-01-15T10:00:38.240Z,-0.022781,-0.031862,-1.061232
2025-01-15T10:00:38.280Z,0.033217,0.008986,-1.018389
2025-01-15T10:00:38.320Z,-0.001221,0.004969,-1.041292
2025-01-15T10:00:38.360Z,-0.012748,-0.005689,-1.026841
2025-01-15T10:00:38.400Z,0.018463,-0.008994,-0.937122
2025-01-15T10:00:38.440Z,-0.014506,-0.007099,-0.998037
2025-01-15T10:00:38.480Z,0.021073,-0.044364,-0.973094
2025-01-15T10:00:38.520Z,0.036295,-0.020679,-1.001348
2025-01-15T10:00:38.560Z,-0.019713,-0.019849,-1.03037
2025-01-15T10:00:38.600Z,0.015225,-0.001468,-1.052434
2025-01-15T10:00:38.640Z,-0.014132,0.046318,-0.973537
2025-01-15T10:00:38.680Z,-0.00318,-0.001385,-0.992817
2025-01-15T10:00:38.720Z,0.77509,-0.003221,-1.021071
2025-01-15T10:00:38.760Z,-0.02945,-0.013496,-0.937486
2025-01-15T10:00:38.800Z,0.072161,-0.025695,-0.955927
2025-01-15T10:00:38.840Z,0.027899,-0.026828,-1.033423
2025-01-15T10:00:38.880Z,0.012518,-0.004307,-1.008105
2025-01-15T10:00:38.920Z,0.012682,0.022004,-0.97402
2025-01-15T10:00:38.960Z,0.019447,0.065334,-0.997292
2025-01-15T10:00:39.000Z,-0.01109,-0.028082,-0.974731
2025-01-15T10:00:39.040Z,-0.086715,0.039269,-1.06468
2025-01-15T10:00:39.080Z,0.020872,0.012135,-1.017991
2025-01-15T10:00:39.120Z,-0.000754,0.05167,-1.005028
2025-01-15T10:00:39.160Z,0.032443,0.014481,-1.058424
2025-01-15T10:00:39.200Z,-0.035648,-0.025986,-0.950984
2025-01-15T10:00:39.240Z,0.002045,-0.03002,-1.04526
2025-01-15T10:00:39.280Z,-0.059648,0.007136,-1.021324
2025-01-15T10:00:39.320Z,-0.06638,-0.019661,-0.994242
2025-01-15T10:00:39.360Z,0.049667,0.008315,-1.02057
2025-01-15T10:00:39.400Z,0.047983,0.068167,-0.998575
2025-01-15T10:00:39.440Z,0.009436,-0.016163,-0.986186
2025-01-15T10:00:39.480Z,0.005694,0.028867,-0.988412
2025-01-15T10:00:39.520Z,-0.043321,-0.005176,-0.973401
2025-01-15T10:00:39.560Z,-0.088343,0.009591,-1.044372
2025-01-15T10:00:39.600Z,-0.048691,0.024602,-0.983345
2025-01-15T10:00:39.640Z,-0.028204,-0.016581,-0.997435
2025-01-15T10:00:39.680Z,-0.037947,0.049373,-1.066443
2025-01-15T10:00:39.720Z,-0.041818,-0.053999,-1.050038
2025-01-15T10:00:39.760Z,0.049344,0.01538,-1.029295
2025-01-15T10:00:39.800Z,0.006253,-0.014964,-0.921425
2025-01-15T10:00:39.840Z,-0.011784,-0.02169,-1.037714
2025-01-15T10:00:39.880Z,-0.01153,0.03255,-1.012307
2025-01-15T10:00:39.920Z,-0.03811,0.046524,-0.941153
2025-01-15T10:00:39.960Z,-0.013079,-0.013447,-1.025574
2025-01-15T10:00:40.000Z,-0.053688,0.019647,-0.991652
2025-01-15T10:00:40.040Z,-0.003128,0.041309,-0.922243
2025-01-15T10:00:40.080Z,-0.018603,-0.005227,-0.943566
2025-01-15T10:00:40.120Z,0.025017,0.019263,-1.026239
2025-01-15T10:00:40.160Z,0.020109,-0.008977,-0.927833
2025-01-15T10:00:40.200Z,-0.057307,-0.036625,-1.057398
2025-01-15T10:00:40.240Z,-0.023451,0.022236,-0.953874
2025-01-15T10:00:40.280Z,0.009711,0.048773,-0.966012
2025-01-15T10:00:40.320Z,-0.009384,0.01991,-0.98828
2025-01-15T10:00:40.360Z,-0.030665,0.022041,-0.919377
2025-01-15T10:00:40.400Z,-0.016407,-0.003532,-1.010359
2025-01-15T10:00:40.440Z,0.02641,0.060434,-1.012297
2025-01-15T10:00:40.480Z,0.015078,0.000862,-0.966102
2025-01-15T10:00:40.520Z,0.000427,-0.048059,-1.005385
2025-01-15T10:00:40.560Z,0.059003,-0.034419,-2.162579
2025-01-15T10:00:40.600Z,-0.039889,-0.027297,-1.048447
2025-01-15T10:00:40.640Z,0.042256,-0.031523,-1.040247
2025-01-15T10:00:40.680Z,-1.179339,-0.025386,-1.018269
2025-01-15T10:00:40.720Z,0.023457,0.022019,-0.982059
2025-01-15T10:00:40.760Z,-0.079022,-0.013318,-0.987546
2025-01-15T10:00:40.800Z,-0.046862,-0.009849,-1.015197
2025-01-15T10:00:40.840Z,0.012209,-0.027027,-0.998551
2025-01-15T10:00:40.880Z,-0.049981,0.001789,-1.057796
2025-01-15T10:00:40.920Z,-0.011507,0.038997,-1.042092
2025-01-15T10:00:40.960Z,0.01503,0.004125,-1.064823
2025-01-15T10:00:41.000Z,-0.036543,0.001989,-1.013353
2025-01-15T10:00:41.040Z,-0.024747,-0.023247,-1.07021
2025-01-15T10:00:41.080Z,-0.047911,-0.004022,-1.007121
2025-01-15T10:00:41.120Z,0.00924,-0.009871,-0.995356
2025-01-15T10:00:41.160Z,-0.012351,-0.002132,-0.982102
2025-01-15T10:00:41.200Z,0.054046,0.003919,-0.997681
2025-01-15T10:00:41.240Z,0.015617,0.00233,-0.972071
2025-01-15T10:00:41.280Z,0.015721,0.033654,-1.029656
2025-01-15T10:00:41.320Z,0.003559,-0.018992,-0.978222
2025-01-15T10:00:41.360Z,-0.027545,-0.043026,-0.931065
2025-01-15T10:00:41.400Z,0.017234,0.007015,-0.992883
2025-01-15T10:00:41.440Z,-0.051733,0.027738,-0.96614
2025-01-15T10:00:41.480Z,0.037013,-0.012259,-0.96787
2025-01-15T10:00:41.520Z,0.049941,-0.057186,-0.983265
2025-01-15T10:00:41.560Z,0.012056,-0.061003,-1.02034
2025-01-15T10:00:41.600Z,0.036951,-0.057243,-1.004244
2025-01-15T10:00:41.640Z,0.054995,-0.007021,-0.943098
2025-01-15T10:00:41.680Z,0.009801,0.028058,-0.982753
2025-01-15T10:00:41.720Z,-0.028911,-0.007117,-1.025108
2025-01-15T10:00:41.760Z,-0.038043,-0.021353,-1.019871
2025-01-15T10:00:41.800Z,-0.025123,-0.0196,-0.960456
2025-01-15T10:00:41.840Z,-0.00123,-0.042524,-0.950759
2025-01-15T10:00:41.880Z,0.034234,-0.020109,-0.998673
2025-01-15T10:00:41.920Z,-0.0008,-0.017482,-0.984651
2025-01-15T10:00:41.960Z,-0.019503,-0.002608,-1.038816
2025-01-15T10:00:42.000Z,0.02276,-0.031624,-0.926146
2025-01-15T10:00:42.040Z,-0.055546,-0.008884,-1.045909
2025-01-15T10:00:42.080Z,0.05111,-0.016171,-0.993312
2025-01-15T10:00:42.120Z,-0.012197,-0.000389,-0.933982
2025-01-15T10:00:42.160Z,-0.017893,0.019649,-0.98871
2025-01-15T10:00:42.200Z,-0.02403,-0.018925,-1.03483
2025-01-15T10:00:42.240Z,0.004457,-0.020133,-1.003705
2025-01-15T10:00:42.280Z,-0.014847,0.011005,-0.988959
2025-01-15T10:00:42.320Z,-0.033039,-0.009746,-1.007703
2025-01-15T10:00:42.360Z,0.031758,0.008424,-1.065052
2025-01-15T10:00:42.400Z,0.016984,-0.039413,-0.950136
2025-01-15T10:00:42.440Z,0.001247,-0.017377,-1.028676
2025-01-15T10:00:42.480Z,0.018378,-0.00924,-1.020901
2025-01-15T10:00:42.520Z,-0.059013,-0.002497,-1.002204
2025-01-15T10:00:42.560Z,0.024211,-0.042135,-1.037256
2025-01-15T10:00:42.600Z,-0.014318,0.012405,-0.996243
2025-01-15T10:00:42.640Z,0.001473,-0.035387,-0.958685
2025-01-15T10:00:42.680Z,-0.031528,-0.045453,-1.033421
2025-01-15T10:00:42.720Z,-0.01384,-0.012843,-0.956507
2025-01-15T10:00:42.760Z,-0.057298,0.051954,-0.990334
2025-01-15T10:00:42.800Z,-0.042317,-0.037254,-1.023914
2025-01-15T10:00:42.840Z,-0.000994,-0.017212,-1.011188
2025-01-15T10:00:42.880Z,0.772176,-0.032477,-1.043246
2025-01-15T10:00:42.920Z,-0.00284,0.009399,-1.06659
2025-01-15T10:00:42.960Z,-0.013314,-0.028745,-1.017111
2025-01-15T10:00:43.000Z,0.030589,0.019997,-0.988534
2025-01-15T10:00:43.040Z,0.00279,-0.01722,-0.951721
2025-01-15T10:00:43.080Z,-0.025949,-0.003021,-0.998923
2025-01-15T10:00:43.120Z,-0.019177,-0.036065,-1.042409
2025-01-15T10:00:43.160Z,-8e-06,0.018994,-0.978498
2025-01-15T10:00:43.200Z,-0.016338,0.049719,-1.064009
2025-01-15T10:00:43.240Z,-0.006445,0.03495,-1.027369
2025-01-15T10:00:43.280Z,0.028878,-0.088916,-1.012041
2025-01-15T10:00:43.320Z,1.219899,0.037853,-0.982398
2025-01-15T10:00:43.360Z,-0.039535,0.013033,-0.994697
2025-01-15T10:00:43.400Z,0.047585,0.058869,-1.017697
2025-01-15T10:00:43.440Z,0.01905,0.018676,-1.050019
2025-01-15T10:00:43.480Z,0.026392,-0.03643,-0.960814
2025-01-15T10:00:43.520Z,-0.050024,-0.035502,-1.029621
2025-01-15T10:00:43.560Z,-0.028698,-0.025299,-1.023735
2025-01-15T10:00:43.600Z,0.033477,-0.005507,-1.028774
2025-01-15T10:00:43.640Z,0.014773,0.047502,-0.975296
2025-01-15T10:00:43.680Z,-0.017322,-0.049369,-1.055373
2025-01-15T10:00:43.720Z,0.000669,-0.002872,-1.005192
2025-01-15T10:00:43.760Z,0.010144,-0.009965,-0.979691
2025-01-15T10:00:43.800Z,-0.032832,-0.014623,-1.034846
2025-01-15T10:00:43.840Z,0.002547,0.000216,-1.045682
2025-01-15T10:00:43.880Z,-0.033854,0.004475,-0.996873
2025-01-15T10:00:43.920Z,-0.001087,0.056572,-1.011491
2025-01-15T10:00:43.960Z,0.034765,0.008459,-1.03976
2025-01-15T10:00:44.000Z,-0.002468,0.029163,-0.966372
2025-01-15T10:00:44.040Z,-0.025866,0.00142,-1.006051
2025-01-15T10:00:44.080Z,-0.027677,-0.03782,-0.945072
2025-01-15T10:00:44.120Z,0.005838,-0.048806,-1.074373
2025-01-15T10:00:44.160Z,-0.035854,0.027949,-0.990415
2025-01-15T10:00:44.200Z,-0.048087,0.007786,-0.936871
2025-01-15T10:00:44.240Z,0.017226,0.011649,-1.095407
2025-01-15T10:00:44.280Z,-0.005472,-0.019017,-0.962024
2025-01-15T10:00:44.320Z,0.009893,-0.021885,-1.046245
2025-01-15T10:00:44.360Z,-0.010787,0.055546,-0.975569
2025-01-15T10:00:44.400Z,0.036291,-0.036074,-0.966
2025-01-15T10:00:44.440Z,-0.003947,0.031352,-1.036755
2025-01-15T10:00:44.480Z,-0.042346,-0.005847,-0.973131
2025-01-15T10:00:44.520Z,-0.026346,1.093326,-0.927977
2025-01-15T10:00:44.560Z,0.024116,-0.012462,-1.016297
2025-01-15T10:00:44.600Z,0.030185,0.039672,-0.994116
2025-01-15T10:00:44.640Z,0.002295,-0.033353,-0.985632
2025-01-15T10:00:44.680Z,-0.044183,0.021189,-1.024073
2025-01-15T10:00:44.720Z,-0.035474,-0.038343,-0.959568
2025-01-15T10:00:44.760Z,-0.039047,0.027672,-1.10877
2025-01-15T10:00:44.800Z,0.015726,-0.008062,-1.008889
2025-01-15T10:00:44.840Z,0.034907,-0.01237,-1.007942
2025-01-15T10:00:44.880Z,-0.035025,0.029252,-0.980159
2025-01-15T10:00:44.920Z,0.00501,0.01636,-1.027814
2025-01-15T10:00:44.960Z,0.022205,-0.044055,-0.971411
2025-01-15T10:00:45.000Z,0.044117,0.008754,-1.098893
2025-01-15T10:00:45.040Z,0.018172,0.003874,-0.990744
2025-01-15T10:00:45.080Z,-0.012733,0.013789,0.003413
2025-01-15T10:00:45.120Z,-0.002575,0.045268,-0.999391
2025-01-15T10:00:45.160Z,0.002762,-0.043034,-1.054953
2025-01-15T10:00:45.200Z,-0.029936,0.020646,-1.033346
2025-01-15T10:00:45.240Z,0.002794,-0.009007,-1.011709
2025-01-15T10:00:45.280Z,0.005747,-0.003345,-0.972179
2025-01-15T10:00:45.320Z,0.088123,0.020693,-1.024757
2025-01-15T10:00:45.360Z,-0.040715,-0.026276,-0.970251
2025-01-15T10:00:45.400Z,0.054249,-0.011004,-0.983458
2025-01-15T10:00:45.440Z,0.02753,-0.026273,-1.070852
2025-01-15T10:00:45.480Z,-0.009921,-0.031431,-1.051234
2025-01-15T10:00:45.520Z,0.002848,0.03214,-1.038725
2025-01-15T10:00:45.560Z,-0.015838,0.009462,-0.972727
2025-01-15T10:00:45.600Z,-0.058194,0.042131,-1.007636
2025-01-15T10:00:45.640Z,0.054621,0.031215,-1.007069
2025-01-15T10:00:45.680Z,0.012793,0.006911,-1.042283
2025-01-15T10:00:45.720Z,-0.013555,0.00504,-0.999227
2025-01-15T10:00:45.760Z,0.006759,-0.00932,-1.002282
2025-01-15T10:00:45.800Z,0.0349,-0.02277,-1.02358
2025-01-15T10:00:45.840Z,0.00248,-0.035752,-0.978491
2025-01-15T10:00:45.880Z,0.044495,-0.04182,-0.967517
2025-01-15T10:00:45.920Z,-0.006037,0.033087,-0.956287
2025-01-15T10:00:45.960Z,-0.043706,-0.045595,-0.942804
2025-01-15T10:00:46.000Z,-0.002997,-0.013268,-1.010964
2025-01-15T10:00:46.040Z,-0.031182,-0.022563,-0.909688
2025-01-15T10:00:46.080Z,0.014101,0.05283,-1.02467
2025-01-15T10:00:46.120Z,-0.007252,0.02107,-0.933598
2025-01-15T10:00:46.160Z,-0.007534,0.043705,-0.973462
2025-01-15T10:00:46.200Z,0.010696,0.022834,-1.050959
2025-01-15T10:00:46.240Z,0.028895,0.032526,-0.994556
2025-01-15T10:00:46.280Z,-0.014563,-0.000752,-0.986273
2025-01-15T10:00:46.320Z,0.003413,0.053608,-0.994297
2025-01-15T10:00:46.360Z,0.026395,0.024107,-1.001698
2025-01-15T10:00:46.400Z,0.006344,-0.020741,-0.9763
2025-01-15T10:00:46.440Z,-0.000442,0.005034,-0.98058
2025-01-15T10:00:46.480Z,0.001529,-0.022445,-0.988944
2025-01-15T10:00:46.520Z,0.007089,0.062198,-0.935895
2025-01-15T10:00:46.560Z,0.04705,-0.031412,-0.997916
2025-01-15T10:00:46.600Z,-0.045507,-0.018661,-1.026611
2025-01-15T10:00:46.640Z,-0.009132,-0.019723,-0.974944
2025-01-15T10:00:46.680Z,-0.017595,-0.028752,-1.060674
2025-01-15T10:00:46.720Z,0.005853,-0.021127,-1.055983
2025-01-15T10:00:46.760Z,-0.00528,0.016081,-1.010784
2025-01-15T10:00:46.800Z,-0.059728,-0.012835,-0.987286
2025-01-15T10:00:46.840Z,0.015479,0.033408,-1.024819
2025-01-15T10:00:46.880Z,-0.001164,0.005891,-0.984882
2025-01-15T10:00:46.920Z,-0.009731,-0.011693,-1.002219
2025-01-15T10:00:46.960Z,0.056257,0.040543,-0.948563
2025-01-15T10:00:47.000Z,0.013613,-0.040524,-1.047934
2025-01-15T10:00:47.040Z,0.005234,-0.04311,-1.000742
2025-01-15T10:00:47.080Z,-0.017333,0.039466,-0.125503
2025-01-15T10:00:47.120Z,-0.033013,-0.035881,-0.967482
2025-01-15T10:00:47.160Z,-0.013384,0.056614,-0.994283
2025-01-15T10:00:47.200Z,-0.020585,0.007003,-0.962719
2025-01-15T10:00:47.240Z,-0.009772,-0.01526,-1.004615
2025-01-15T10:00:47.280Z,0.023544,0.019349,-0.986002
2025-01-15T10:00:47.320Z,0.001041,-0.004876,-0.925525
2025-01-15T10:00:47.360Z,0.040775,0.00258,-0.963439
2025-01-15T10:00:47.400Z,0.019092,0.015007,-0.96905
2025-01-15T10:00:47.440Z,-0.023109,-0.016798,-1.009274
2025-01-15T10:00:47.480Z,-0.026943,-0.014619,-1.05743
2025-01-15T10:00:47.520Z,-0.001857,-0.03889,-1.002218
2025-01-15T10:00:47.560Z,-0.021489,0.00255,-0.986891
2025-01-15T10:00:47.600Z,-0.021547,0.033041,-1.000866
2025-01-15T10:00:47.640Z,-0.019964,0.009875,-1.050907
2025-01-15T10:00:47.680Z,-0.034516,-0.006406,-0.98066
2025-01-15T10:00:47.720Z,-0.022227,-0.019964,-0.079786
2025-01-15T10:00:47.760Z,0.02021,-0.046963,-0.996285
2025-01-15T10:00:47.800Z,0.009855,0.044952,-0.981881
2025-01-15T10:00:47.840Z,0.018404,-0.029736,-0.956788
2025-01-15T10:00:47.880Z,0.068757,-0.007674,-0.921957
2025-01-15T10:00:47.920Z,-0.005403,0.023069,-0.98154
2025-01-15T10:00:47.960Z,-0.055909,0.070192,-0.988141
2025-01-15T10:00:48.000Z,-0.005933,-0.045615,-1.047272
2025-01-15T10:00:48.040Z,-0.064975,0.005559,-1.01148
2025-01-15T10:00:48.080Z,-0.02248,-0.002067,-0.986865
2025-01-15T10:00:48.120Z,-0.046013,0.049969,-0.971671
2025-01-15T10:00:48.160Z,0.880931,0.025611,-0.995312
2025-01-15T10:00:48.200Z,0.013375,-0.067427,-1.010511
2025-01-15T10:00:48.240Z,-0.011266,0.01932,-0.995667
2025-01-15T10:00:48.280Z,0.00865,-0.003912,-0.975582
2025-01-15T10:00:48.320Z,0.0749,0.041321,-0.990056
2025-01-15T10:00:48.360Z,-0.004255,0.019207,-1.051011
2025-01-15T10:00:48.400Z,0.044589,-0.050519,-1.060002
2025-01-15T10:00:48.440Z,-0.002558,-0.008477,-1.02491
2025-01-15T10:00:48.480Z,-0.001877,0.021013,-0.932954
2025-01-15T10:00:48.520Z,0.022462,0.059556,-1.026392
2025-01-15T10:00:48.560Z,0.000102,-0.052821,-0.986277
2025-01-15T10:00:48.600Z,-0.002683,-0.030191,-1.028661
2025-01-15T10:00:48.640Z,-0.022455,-0.037557,-1.066188
2025-01-15T10:00:48.680Z,0.006048,0.017442,-1.025987
2025-01-15T10:00:48.720Z,-0.011147,-0.050238,-0.984142
2025-01-15T10:00:48.760Z,-0.026389,-0.036091,-1.064109
2025-01-15T10:00:48.800Z,0.020219,0.03391,-0.966537
2025-01-15T10:00:48.840Z,-0.020174,-0.024596,0.153443
2025-01-15T10:00:48.880Z,-0.037957,-0.011024,-0.954345
2025-01-15T10:00:48.920Z,-0.043937,0.009216,-0.954394
2025-01-15T10:00:48.960Z,-0.032399,-0.009766,-1.043109
2025-01-15T10:00:49.000Z,-0.033622,-0.012818,-0.998228
2025-01-15T10:00:49.040Z,-0.011456,-0.076702,-0.990743
2025-01-15T10:00:49.080Z,0.000937,-0.01623,-1.039803
2025-01-15T10:00:49.120Z,-0.007898,0.013342,-0.952682
2025-01-15T10:00:49.160Z,0.004071,0.058139,-0.978627
2025-01-15T10:00:49.200Z,-0.039329,-0.065757,-0.989436
2025-01-15T10:00:49.240Z,-0.001586,0.001759,-0.931237
2025-01-15T10:00:49.280Z,-0.024289,0.023384,-0.985732
2025-01-15T10:00:49.320Z,-0.032087,0.066272,-1.029487
2025-01-15T10:00:49.360Z,0.006816,-0.020802,-1.000432
2025-01-15T10:00:49.400Z,0.009241,-0.012065,-0.940986
2025-01-15T10:00:49.440Z,0.028507,0.011974,-1.032749
2025-01-15T10:00:49.480Z,-0.001081,0.000371,-0.973803
2025-01-15T10:00:49.520Z,0.00633,0.007416,-0.970214
2025-01-15T10:00:49.560Z,0.002515,0.00637,-0.972708
2025-01-15T10:00:49.600Z,0.047989,0.00324,-1.030633
2025-01-15T10:00:49.640Z,-0.005342,0.934098,-1.063586
2025-01-15T10:00:49.680Z,-0.022378,0.011024,-1.015047
2025-01-15T10:00:49.720Z,0.0297,0.023857,-1.095985
2025-01-15T10:00:49.760Z,-0.04984,0.01835,-0.966112
2025-01-15T10:00:49.800Z,-0.08122,-0.024556,-0.945172
2025-01-15T10:00:49.840Z,0.003685,-0.023177,-0.985194
2025-01-15T10:00:49.880Z,0.012803,0.037063,-1.029585
2025-01-15T10:00:49.920Z,-0.006414,0.005697,-1.029492
2025-01-15T10:00:49.960Z,0.006486,0.010366,-1.015016
2025-01-15T10:00:50.000Z,0.035567,0.016365,-0.978403
2025-01-15T10:00:50.040Z,-0.012324,0.017299,-0.961659
2025-01-15T10:00:50.080Z,0.049801,-0.028731,-1.045955
2025-01-15T10:00:50.120Z,-0.046398,-0.034709,-0.959005
2025-01-15T10:00:50.160Z,-0.011167,0.042026,-1.036427
2025-01-15T10:00:50.200Z,0.009989,0.008555,-1.041138
2025-01-15T10:00:50.240Z,-0.023498,-0.015485,-1.023011
2025-01-15T10:00:50.280Z,-0.0173,0.024738,-1.016261
2025-01-15T10:00:50.320Z,0.021702,-0.022477,-1.068173
2025-01-15T10:00:50.360Z,-0.006252,0.02037,-0.984316
2025-01-15T10:00:50.400Z,0.020659,0.004858,-1.053592
2025-01-15T10:00:50.440Z,-0.032209,-0.01426,-0.988805
2025-01-15T10:00:50.480Z,0.037625,0.000393,-1.032897
2025-01-15T10:00:50.520Z,-0.001565,0.016653,-0.978933
2025-01-15T10:00:50.560Z,0.001384,0.00594,-1.02311
2025-01-15T10:00:50.600Z,-0.001569,-0.026103,-0.967285
2025-01-15T10:00:50.640Z,-0.050639,0.001228,-1.021692
2025-01-15T10:00:50.680Z,-0.004326,-0.006516,-1.026592
2025-01-15T10:00:50.720Z,0.022795,0.033598,-0.95816
2025-01-15T10:00:50.760Z,-0.034189,0.010327,-1.053129
2025-01-15T10:00:50.800Z,-0.012454,0.010633,-0.985454
2025-01-15T10:00:50.840Z,-0.013888,-0.000992,-1.087287
2025-01-15T10:00:50.880Z,0.020601,-0.017818,-1.000107
2025-01-15T10:00:50.920Z,-0.004197,-0.01386,-0.979615
2025-01-15T10:00:50.960Z,-0.02696,0.028484,-1.010635
2025-01-15T10:00:51.000Z,-0.009189,0.001018,-0.915354
2025-01-15T10:00:51.040Z,-0.018015,0.949809,-0.933125
2025-01-15T10:00:51.080Z,-0.030405,0.037885,-1.023431
2025-01-15T10:00:51.120Z,-0.020479,0.008402,-1.01023
2025-01-15T10:00:51.160Z,-0.0561,-0.033625,-1.060149
2025-01-15T10:00:51.200Z,0.011912,-0.019754,-0.963684
2025-01-15T10:00:51.240Z,0.012522,1.156435,-1.023243
2025-01-15T10:00:51.280Z,-0.017132,-0.015613,-1.005062
2025-01-15T10:00:51.320Z,0.017083,0.046936,-1.014955
2025-01-15T10:00:51.360Z,-0.037802,0.022431,-1.024172
2025-01-15T10:00:51.400Z,0.015834,-0.005968,-0.984718
2025-01-15T10:00:51.440Z,1.080859,0.025261,-1.010837
2025-01-15T10:00:51.480Z,0.04405,0.007075,-1.064005
2025-01-15T10:00:51.520Z,-0.060638,0.001114,-0.947939
2025-01-15T10:00:51.560Z,0.000335,-0.006313,-0.932386
2025-01-15T10:00:51.600Z,-0.00225,-0.019119,-0.953784
2025-01-15T10:00:51.640Z,-0.019166,-0.043933,-0.959295
2025-01-15T10:00:51.680Z,-0.053838,0.029906,-1.021873
2025-01-15T10:00:51.720Z,0.044184,-0.003684,-0.950178
2025-01-15T10:00:51.760Z,0.053326,0.0049,-0.994261
2025-01-15T10:00:51.800Z,-0.000533,0.048754,-1.006959
2025-01-15T10:00:51.840Z,0.052166,0.049722,-0.937717
2025-01-15T10:00:51.880Z,-0.000992,0.021862,-1.033432
2025-01-15T10:00:51.920Z,0.007508,-0.048119,-0.947266
2025-01-15T10:00:51.960Z,-0.013787,-0.019389,-0.995699
2025-01-15T10:00:52.000Z,0.015402,-0.018681,-1.003688
2025-01-15T10:00:52.040Z,0.022828,0.059361,-0.994528
2025-01-15T10:00:52.080Z,0.030597,-0.009605,-0.976597
2025-01-15T10:00:52.120Z,-0.025715,0.054447,-0.955785
2025-01-15T10:00:52.160Z,0.034877,-0.028584,-0.989112
2025-01-15T10:00:52.200Z,-0.003264,-0.041381,-0.998328
2025-01-15T10:00:52.240Z,-0.023397,-0.017161,-1.115124
2025-01-15T10:00:52.280Z,-0.030099,0.006169,-0.938252
2025-01-15T10:00:52.320Z,-0.013438,-0.011524,-0.970339
2025-01-15T10:00:52.360Z,0.006566,0.065843,-0.953794
2025-01-15T10:00:52.400Z,0.00272,0.040804,-1.003295
2025-01-15T10:00:52.440Z,0.014219,-0.066515,-0.939091
2025-01-15T10:00:52.480Z,-0.012703,0.002053,-0.969932
2025-01-15T10:00:52.520Z,-0.045315,0.004456,-0.959234
2025-01-15T10:00:52.560Z,-0.034429,-0.02174,-0.969046
2025-01-15T10:00:52.600Z,-0.019955,-0.027508,-1.075955
2025-01-15T10:00:52.640Z,0.029442,0.013447,-0.950977
2025-01-15T10:00:52.680Z,0.038636,0.009365,-1.021522
2025-01-15T10:00:52.720Z,-0.026297,-0.029666,-0.986306
2025-01-15T10:00:52.760Z,-0.018865,0.008643,-1.008733
2025-01-15T10:00:52.800Z,-0.028712,0.032692,-1.018182
2025-01-15T10:00:52.840Z,-0.06162,0.021182,-0.957167
2025-01-15T10:00:52.880Z,0.042485,-0.011446,-0.987312
2025-01-15T10:00:52.920Z,-0.012215,0.039072,-0.978236
2025-01-15T10:00:52.960Z,-0.063347,-0.025092,-1.07619
2025-01-15T10:00:53.000Z,0.03436,0.049547,-1.051837
2025-01-15T10:00:53.040Z,-0.001511,-0.0035,-1.031452
2025-01-15T10:00:53.080Z,0.006206,-0.010047,-1.031263
2025-01-15T10:00:53.120Z,0.086233,0.018513,-0.953832
2025-01-15T10:00:53.160Z,0.039686,-0.030236,-0.930842
2025-01-15T10:00:53.200Z,-0.06959,0.00707,-1.039813
2025-01-15T10:00:53.240Z,0.005511,-0.024557,-0.999903
2025-01-15T10:00:53.280Z,-0.012457,-0.010813,-0.996485
2025-01-15T10:00:53.320Z,-0.019581,0.048786,-1.062075
2025-01-15T10:00:53.360Z,-0.057143,-0.045011,-0.98718
2025-01-15T10:00:53.400Z,-0.047311,-0.014814,-1.006263
2025-01-15T10:00:53.440Z,-0.024301,-0.050326,-0.950375
2025-01-15T10:00:53.480Z,0.023869,-0.016748,-0.983263
2025-01-15T10:00:53.520Z,0.037834,-0.05525,-1.026734
2025-01-15T10:00:53.560Z,-0.052075,0.035411,-1.065967
2025-01-15T10:00:53.600Z,-0.014026,-0.024023,-1.005372
2025-01-15T10:00:53.640Z,0.017278,-0.025351,-0.974304
2025-01-15T10:00:53.680Z,-0.019034,-0.001691,-1.031795
2025-01-15T10:00:53.720Z,-0.021763,-0.008871,-1.056925
2025-01-15T10:00:53.760Z,0.072158,0.02228,-1.017707
2025-01-15T10:00:53.800Z,0.068599,0.002796,-0.984061
2025-01-15T10:00:53.840Z,0.011865,-0.023284,-1.049777
2025-01-15T10:00:53.880Z,-0.00647,0.006964,-1.003793
2025-01-15T10:00:53.920Z,0.004846,0.014055,-0.988726
2025-01-15T10:00:53.960Z,-0.007224,0.017869,-0.992136
2025-01-15T10:00:54.000Z,0.041269,-0.001518,-0.99469
2025-01-15T10:00:54.040Z,0.060616,0.009343,-1.082509
2025-01-15T10:00:54.080Z,-0.009577,0.014202,-1.009842
2025-01-15T10:00:54.120Z,-0.031657,-0.021146,-1.052906
2025-01-15T10:00:54.160Z,0.055155,0.007144,-0.975881
2025-01-15T10:00:54.200Z,-0.003835,0.010934,-1.079996
2025-01-15T10:00:54.240Z,-0.007941,0.013394,-1.030658
2025-01-15T10:00:54.280Z,0.010072,0.006556,-1.016348
2025-01-15T10:00:54.320Z,0.041151,0.008429,-1.019718
2025-01-15T10:00:54.360Z,-0.04224,0.025658,-1.01268
2025-01-15T10:00:54.400Z,-0.077195,-0.011693,-1.023117
2025-01-15T10:00:54.440Z,-0.030515,0.025665,-0.985756
2025-01-15T10:00:54.480Z,-0.034546,0.023116,-0.99339
2025-01-15T10:00:54.520Z,0.039347,-0.023534,-1.014786
2025-01-15T10:00:54.560Z,-0.007233,0.906836,-1.023248
2025-01-15T10:00:54.600Z,0.011291,-0.030452,-0.949025
2025-01-15T10:00:54.640Z,0.065406,0.002388,-1.001355
2025-01-15T10:00:54.680Z,0.033548,-0.010178,-0.995764
2025-01-15T10:00:54.720Z,-0.049697,0.008116,-1.030763
2025-01-15T10:00:54.760Z,0.005844,0.029485,-1.022479
2025-01-15T10:00:54.800Z,-0.032249,0.008766,-1.03388
2025-01-15T10:00:54.840Z,0.048181,0.01055,-1.014916
2025-01-15T10:00:54.880Z,0.025035,0.013785,-0.959085
2025-01-15T10:00:54.920Z,-0.033895,0.021656,-1.054691
2025-01-15T10:00:54.960Z,0.063611,-0.007682,-1.001458
2025-01-15T10:00:55.000Z,0.040455,-0.038325,-0.910761
2025-01-15T10:00:55.040Z,-1.150377,-0.014888,-1.033809
2025-01-15T10:00:55.080Z,-0.079564,0.008949,-1.008151
2025-01-15T10:00:55.120Z,0.037851,-0.002584,-0.996062
2025-01-15T10:00:55.160Z,-0.037217,0.055883,-1.008231
2025-01-15T10:00:55.200Z,-0.00925,0.021396,-0.97009
2025-01-15T10:00:55.240Z,0.00523,-0.012346,-1.042082
2025-01-15T10:00:55.280Z,-0.017484,-0.02284,-1.001014
2025-01-15T10:00:55.320Z,-0.038314,-0.025528,-0.998391
2025-01-15T10:00:55.360Z,0.002318,0.03139,-1.009348
2025-01-15T10:00:55.400Z,-0.029189,-0.005793,-0.985587
2025-01-15T10:00:55.440Z,-0.043873,-0.071694,-0.970193
2025-01-15T10:00:55.480Z,-0.008971,0.00771,-1.064438
2025-01-15T10:00:55.520Z,0.048078,-0.006814,-0.985165
2025-01-15T10:00:55.560Z,-0.028195,0.03335,-1.009428
2025-01-15T10:00:55.600Z,-0.015072,0.017809,-0.99631
2025-01-15T10:00:55.640Z,-0.008261,-0.001023,-0.914701
2025-01-15T10:00:55.680Z,0.000947,-0.05176,-1.055479
2025-01-15T10:00:55.720Z,0.006687,-0.011704,-1.05828
2025-01-15T10:00:55.760Z,0.082112,0.038694,-1.015951
2025-01-15T10:00:55.800Z,0.012969,0.007921,-1.04094
2025-01-15T10:00:55.840Z,0.015746,-0.00702,-0.954622
2025-01-15T10:00:55.880Z,0.007078,0.037923,-1.034463
2025-01-15T10:00:55.920Z,0.001446,0.0391,-0.97126
2025-01-15T10:00:55.960Z,-0.024862,0.004825,-1.012464
2025-01-15T10:00:56.000Z,0.025638,0.001717,-0.997622
2025-01-15T10:00:56.040Z,0.003464,0.008918,-1.052615
2025-01-15T10:00:56.080Z,-0.029816,0.000638,-0.987921
2025-01-15T10:00:56.120Z,-0.009089,0.005815,-1.016616
2025-01-15T10:00:56.160Z,0.001906,-0.051425,-1.025524
2025-01-15T10:00:56.200Z,0.021148,-0.01155,-1.019158
2025-01-15T10:00:56.240Z,0.035936,-0.003625,-0.983619
2025-01-15T10:00:56.280Z,0.001107,0.011244,-0.992429
2025-01-15T10:00:56.320Z,-0.014608,-0.05206,-0.958642
2025-01-15T10:00:56.360Z,0.026858,0.00756,-0.910542
2025-01-15T10:00:56.400Z,0.027771,-0.013366,-1.019797
2025-01-15T10:00:56.440Z,0.04924,0.047923,-1.043786
2025-01-15T10:00:56.480Z,-0.048933,0.029249,-1.031539
2025-01-15T10:00:56.520Z,0.019137,1.1e-05,-1.014671
2025-01-15T10:00:56.560Z,-0.01564,-0.023269,-1.063953
2025-01-15T10:00:56.600Z,0.054571,-0.027096,-0.890687
2025-01-15T10:00:56.640Z,0.009769,-0.004268,-1.017128
2025-01-15T10:00:56.680Z,-0.00023,-0.024575,-1.05552
2025-01-15T10:00:56.720Z,0.039041,0.032279,-1.007909
2025-01-15T10:00:56.760Z,-0.004662,-0.03812,-0.942878
2025-01-15T10:00:56.800Z,0.038386,0.019483,-0.977003
2025-01-15T10:00:56.840Z,-0.013091,-0.006302,-0.976297
2025-01-15T10:00:56.880Z,-0.78526,-0.05572,-0.996609
2025-01-15T10:00:56.920Z,0.033407,0.015771,-1.021973
2025-01-15T10:00:56.960Z,-0.066959,0.010579,-1.024024
2025-01-15T10:00:57.000Z,-0.023704,-0.005657,-0.982374
2025-01-15T10:00:57.040Z,0.00642,0.033228,-1.031989
2025-01-15T10:00:57.080Z,0.023863,-0.040943,-0.950823
2025-01-15T10:00:57.120Z,0.011566,0.006185,-1.027054
2025-01-15T10:00:57.160Z,-0.027304,0.041315,-0.959963
2025-01-15T10:00:57.200Z,0.001774,0.065936,-0.97339
2025-01-15T10:00:57.240Z,0.003096,0.090272,-0.999717
2025-01-15T10:00:57.280Z,-0.006083,0.025103,-1.015435
2025-01-15T10:00:57.320Z,-0.01297,-0.027543,-1.072556
2025-01-15T10:00:57.360Z,0.036918,0.002509,-0.91733
2025-01-15T10:00:57.400Z,-0.031873,0.001601,-1.026264
2025-01-15T10:00:57.440Z,-0.005585,0.039776,-0.998958
2025-01-15T10:00:57.480Z,0.011074,0.068576,-1.00971
2025-01-15T10:00:57.520Z,0.008306,0.011901,-0.981188
2025-01-15T10:00:57.560Z,-0.015194,0.01361,-0.954028
2025-01-15T10:00:57.600Z,0.006894,0.024595,-1.032691
2025-01-15T10:00:57.640Z,0.061884,-0.028807,-1.037376
2025-01-15T10:00:57.680Z,-0.055957,-0.01838,-1.054573
2025-01-15T10:00:57.720Z,-0.017128,-0.039154,-1.045043
2025-01-15T10:00:57.760Z,1.059713,0.000815,-0.986697
2025-01-15T10:00:57.800Z,-0.001521,0.001415,-0.98932
2025-01-15T10:00:57.840Z,-0.033276,0.040919,-0.97294
2025-01-15T10:00:57.880Z,-0.044128,0.039989,-1.008409
2025-01-15T10:00:57.920Z,-0.005782,0.004964,-0.972814
2025-01-15T10:00:57.960Z,-0.026624,-0.045055,-1.068635
2025-01-15T10:00:58.000Z,-0.024367,-0.041279,-0.989207
2025-01-15T10:00:58.040Z,0.059615,-0.024441,-0.987812
2025-01-15T10:00:58.080Z,-0.007138,-0.047556,-0.988928
2025-01-15T10:00:58.120Z,-0.038151,-0.027938,-1.004561
2025-01-15T10:00:58.160Z,-0.028543,-0.00206,-1.009473
2025-01-15T10:00:58.200Z,0.006896,-0.011916,-1.022634
2025-01-15T10:00:58.240Z,-0.032426,-0.015943,-1.10126
2025-01-15T10:00:58.280Z,0.00836,0.044023,-0.996868
2025-01-15T10:00:58.320Z,0.009955,-0.037547,-1.019776
2025-01-15T10:00:58.360Z,0.012243,0.01363,-1.006818
2025-01-15T10:00:58.400Z,-0.004368,-0.032832,-1.052235
2025-01-15T10:00:58.440Z,0.036629,0.030883,-1.016866
2025-01-15T10:00:58.480Z,0.044691,0.038381,-1.01343
2025-01-15T10:00:58.520Z,0.006099,-0.013532,-1.032835
2025-01-15T10:00:58.560Z,-0.02962,0.044225,-1.026658
2025-01-15T10:00:58.600Z,-0.032356,-0.036339,-0.981247
2025-01-15T10:00:58.640Z,-0.000495,-0.047808,-0.938902
2025-01-15T10:00:58.680Z,-0.047529,0.009927,-1.015334
2025-01-15T10:00:58.720Z,-0.004722,-0.005607,-0.975694
2025-01-15T10:00:58.760Z,-0.027184,0.058137,-1.014704
2025-01-15T10:00:58.800Z,0.0132,-0.009136,-1.046117
2025-01-15T10:00:58.840Z,-0.007767,-0.047299,-1.023256
2025-01-15T10:00:58.880Z,0.016213,0.060753,-1.02337
2025-01-15T10:00:58.920Z,0.001357,0.049562,-0.978627
2025-01-15T10:00:58.960Z,0.053934,0.015825,-0.935297
2025-01-15T10:00:59.000Z,0.006624,-0.016013,-0.985656
2025-01-15T10:00:59.040Z,-0.0165,0.037511,-1.087419
2025-01-15T10:00:59.080Z,-0.020146,0.061347,-1.029114
2025-01-15T10:00:59.120Z,0.044088,-0.036652,-0.999826
2025-01-15T10:00:59.160Z,-0.032242,0.030291,-1.066182
2025-01-15T10:00:59.200Z,0.027283,-0.0039,-0.91705
2025-01-15T10:00:59.240Z,0.001728,-0.007775,-0.975828
2025-01-15T10:00:59.280Z,0.054802,-0.025371,-1.032728
2025-01-15T10:00:59.320Z,0.020613,-0.040569,-0.969829
2025-01-15T10:00:59.360Z,-0.846233,0.00872,-1.0053
2025-01-15T10:00:59.400Z,-0.002923,-0.007464,-1.006509
2025-01-15T10:00:59.440Z,0.010816,0.035916,-0.955112
2025-01-15T10:00:59.480Z,0.067672,-0.001291,-0.920766
2025-01-15T10:00:59.520Z,0.007686,0.054317,-0.919969
2025-01-15T10:00:59.560Z,0.015287,0.019866,-0.976189
2025-01-15T10:00:59.600Z,-0.009335,0.024566,-1.046327
2025-01-15T10:00:59.640Z,-0.029539,-0.020229,-1.102118
2025-01-15T10:00:59.680Z,-0.075753,-0.794437,-0.930181
2025-01-15T10:00:59.720Z,-0.077791,0.047124,-1.037664
2025-01-15T10:00:59.760Z,-0.028667,-0.030544,-1.010374
2025-01-15T10:00:59.800Z,0.011453,-0.01641,-0.949396
2025-01-15T10:00:59.840Z,0.014159,0.0313,-0.997749
2025-01-15T10:00:59.880Z,-0.02104,-0.02369,-0.993887
2025-01-15T10:00:59.920Z,-0.0076,-0.033246,-1.001548
2025-01-15T10:00:59.960Z,0.062538,-0.013898,-1.068816
2025-01-15T10:01:00.000Z,-0.035463,-0.020145,-1.012929
2025-01-15T10:01:00.040Z,0.02496,-0.032994,-1.738733
2025-01-15T10:01:00.080Z,-0.06757,-0.022813,-0.993253
2025-01-15T10:01:00.120Z,-0.015811,0.038216,-1.001697
2025-01-15T10:01:00.160Z,0.016455,0.046401,-1.00859
2025-01-15T10:01:00.200Z,-0.027835,-0.031318,-1.05356
2025-01-15T10:01:00.240Z,0.033725,-0.011509,-0.984184
2025-01-15T10:01:00.280Z,0.014992,0.016761,-1.029296
2025-01-15T10:01:00.320Z,0.039141,-0.000282,-0.991238
2025-01-15T10:01:00.360Z,-0.00854,0.00527,-1.028981
2025-01-15T10:01:00.400Z,0.019938,-0.017173,-0.959572
2025-01-15T10:01:00.440Z,-0.03004,-0.021954,-1.995279
2025-01-15T10:01:00.480Z,0.061232,0.007294,-0.993854
2025-01-15T10:01:00.520Z,-0.012045,-0.021345,-0.968389
2025-01-15T10:01:00.560Z,-0.058102,-0.005711,-1.025893
2025-01-15T10:01:00.600Z,0.005914,-0.030932,-0.998155
2025-01-15T10:01:00.640Z,-0.004769,-0.01166,-1.034749
2025-01-15T10:01:00.680Z,0.016698,-0.071513,-0.998678
2025-01-15T10:01:00.720Z,-0.03208,-0.007381,-0.97885
2025-01-15T10:01:00.760Z,-0.038031,0.023831,-0.972287
2025-01-15T10:01:00.800Z,-0.002305,0.001005,-1.004045
2025-01-15T10:01:00.840Z,-0.020648,-0.038611,-0.998375
2025-01-15T10:01:00.880Z,0.02158,-0.018008,-1.015847
2025-01-15T10:01:00.920Z,0.035171,-0.012466,-1.019289
2025-01-15T10:01:00.960Z,-0.056349,0.001506,-1.01744
2025-01-15T10:01:01.000Z,0.012274,-0.002581,-0.996131
2025-01-15T10:01:01.040Z,-0.065466,-0.001247,-0.974017
2025-01-15T10:01:01.080Z,-1.084289,0.010695,-0.955592
2025-01-15T10:01:01.120Z,0.004016,-0.018222,-1.034278
2025-01-15T10:01:01.160Z,-0.001728,-0.009737,-1.064585
2025-01-15T10:01:01.200Z,0.039687,0.01359,-0.932152
2025-01-15T10:01:01.240Z,0.029126,0.025096,-0.964496
2025-01-15T10:01:01.280Z,-0.036504,0.012155,-0.997164
2025-01-15T10:01:01.320Z,-0.029138,-8.8e-05,-0.968552
2025-01-15T10:01:01.360Z,0.00701,0.019514,-0.96816
2025-01-15T10:01:01.400Z,0.010655,0.000835,-0.969983
2025-01-15T10:01:01.440Z,0.069338,0.021528,-0.998674
2025-01-15T10:01:01.480Z,0.019536,-0.019959,-1.016098
2025-01-15T10:01:01.520Z,-0.027821,-0.013619,-0.992171
2025-01-15T10:01:01.560Z,-0.025973,0.019344,-1.029063
2025-01-15T10:01:01.600Z,-0.017031,0.015078,-1.010023
2025-01-15T10:01:01.640Z,0.020781,0.012116,-0.980665
2025-01-15T10:01:01.680Z,0.003,0.931906,-0.961964
2025-01-15T10:01:01.720Z,-0.047489,0.036565,-0.909635
2025-01-15T10:01:01.760Z,0.033402,-0.028338,-0.969956
2025-01-15T10:01:01.800Z,0.036418,0.00118,-0.994003
2025-01-15T10:01:01.840Z,-0.01573,-0.004028,-0.973055
2025-01-15T10:01:01.880Z,-0.005099,-0.021118,-1.099938
2025-01-15T10:01:01.920Z,-0.016157,0.014805,-0.977433
2025-01-15T10:01:01.960Z,-0.020643,-0.030006,-0.994881
2025-01-15T10:01:02.000Z,0.052231,-0.03964,-0.999981
2025-01-15T10:01:02.040Z,0.037661,0.014439,-0.994893
2025-01-15T10:01:02.080Z,0.038538,-0.0326,-0.996217
2025-01-15T10:01:02.120Z,-0.00128,0.024378,-1.006748
2025-01-15T10:01:02.160Z,0.027784,-0.041612,-1.03104
2025-01-15T10:01:02.200Z,-0.001716,-1.138622,-1.02238
2025-01-15T10:01:02.240Z,-0.041387,-0.016628,-0.957593
2025-01-15T10:01:02.280Z,-0.040128,-0.037708,-0.978847
2025-01-15T10:01:02.320Z,0.011082,-0.016239,-0.996246
2025-01-15T10:01:02.360Z,-0.01158,-0.006903,-0.977098
2025-01-15T10:01:02.400Z,0.078704,-0.008501,-1.022456
2025-01-15T10:01:02.440Z,0.021006,0.009071,-0.995101
2025-01-15T10:01:02.480Z,-0.014161,-0.01886,-0.9752
2025-01-15T10:01:02.520Z,-0.002529,-0.046259,-1.008042
2025-01-15T10:01:02.560Z,0.005241,-0.007643,-1.039878
2025-01-15T10:01:02.600Z,-0.00083,0.011951,-1.02521
2025-01-15T10:01:02.640Z,0.021287,-0.033886,-0.967498
2025-01-15T10:01:02.680Z,0.023797,-0.02269,-0.982853
2025-01-15T10:01:02.720Z,-0.039941,-1.1e-05,-1.077999
2025-01-15T10:01:02.760Z,-0.029537,-0.017239,-1.036637
2025-01-15T10:01:02.800Z,-0.040922,0.042167,-1.030121
2025-01-15T10:01:02.840Z,0.012416,0.035694,-0.969144
2025-01-15T10:01:02.880Z,-0.002995,-0.014085,-0.998968
2025-01-15T10:01:02.920Z,-0.052046,-0.021323,-0.992312
2025-01-15T10:01:02.960Z,-0.020482,-0.023358,-0.990212
2025-01-15T10:01:03.000Z,0.008383,-0.029196,-0.989021
2025-01-15T10:01:03.040Z,-0.036204,0.009961,-1.029424
2025-01-15T10:01:03.080Z,0.012997,-0.057546,-0.941389
2025-01-15T10:01:03.120Z,0.024517,-0.020602,-1.039863
2025-01-15T10:01:03.160Z,-0.00829,0.017143,-0.92161
2025-01-15T10:01:03.200Z,-0.042607,0.016806,-1.000511
2025-01-15T10:01:03.240Z,0.045012,-0.009984,-1.025776
2025-01-15T10:01:03.280Z,-0.006373,-0.01248,-1.061286
2025-01-15T10:01:03.320Z,-0.016691,0.023132,-0.995061
2025-01-15T10:01:03.360Z,-0.007619,-0.000785,-0.99312
2025-01-15T10:01:03.400Z,0.030225,0.054043,-0.06012
2025-01-15T10:01:03.440Z,-0.060479,0.043149,-0.966137
2025-01-15T10:01:03.480Z,0.010265,0.028087,-0.996987
2025-01-15T10:01:03.520Z,-0.000121,0.005997,-1.051835
2025-01-15T10:01:03.560Z,0.071554,0.019847,-1.021581
2025-01-15T10:01:03.600Z,-0.030474,0.008686,-1.050127
2025-01-15T10:01:03.640Z,-0.047388,-0.040949,-0.29639
2025-01-15T10:01:03.680Z,-0.03429,-0.006729,-1.025652
2025-01-15T10:01:03.720Z,0.021618,-0.035254,-0.986736
2025-01-15T10:01:03.760Z,-0.074287,-0.031123,-1.032521
2025-01-15T10:01:03.800Z,-0.043821,0.000565,-1.024171
2025-01-15T10:01:03.840Z,-0.011293,0.003908,-0.997369
2025-01-15T10:01:03.880Z,-0.037965,0.006638,-1.03969
2025-01-15T10:01:03.920Z,0.01369,0.021115,-0.994089
2025-01-15T10:01:03.960Z,0.014341,-0.016948,-1.02312
2025-01-15T10:01:04.000Z,-0.009576,-0.035254,-1.012152
2025-01-15T10:01:04.040Z,-0.033398,0.01194,-0.998224
2025-01-15T10:01:04.080Z,-0.00491,-0.007318,-0.967185
2025-01-15T10:01:04.120Z,-0.015539,-0.02781,-1.001582
2025-01-15T10:01:04.160Z,0.02114,0.092678,-1.009789
2025-01-15T10:01:04.200Z,-0.014211,-0.030059,-0.921262
2025-01-15T10:01:04.240Z,-0.048258,0.008578,-1.052303
2025-01-15T10:01:04.280Z,-0.01326,0.018123,-1.021839
2025-01-15T10:01:04.320Z,-0.01525,0.07129,-1.008272
2025-01-15T10:01:04.360Z,-0.032409,-0.026512,-1.016476
2025-01-15T10:01:04.400Z,-0.043294,-0.014356,-1.009489
2025-01-15T10:01:04.440Z,-0.011509,0.061269,-0.949741
2025-01-15T10:01:04.480Z,0.015125,-0.009586,-1.03513
2025-01-15T10:01:04.520Z,-0.846601,0.00143,-0.996439
2025-01-15T10:01:04.560Z,-0.004045,-0.016153,-0.950825
2025-01-15T10:01:04.600Z,0.033035,-0.002278,-0.952443
2025-01-15T10:01:04.640Z,-0.026765,-0.000122,-0.992127
2025-01-15T10:01:04.680Z,0.010792,0.003853,-0.994168
2025-01-15T10:01:04.720Z,-0.005893,-0.054972,-0.969227
2025-01-15T10:01:04.760Z,0.032889,0.02115,-0.982085
2025-01-15T10:01:04.800Z,0.000376,0.036161,-1.024478
2025-01-15T10:01:04.840Z,-0.001346,0.037399,-1.05198
2025-01-15T10:01:04.880Z,-0.012419,0.02966,-0.994736
2025-01-15T10:01:04.920Z,-0.00161,-0.030457,-0.948065
2025-01-15T10:01:04.960Z,0.048307,0.014446,-0.967174
2025-01-15T10:01:05.000Z,-0.04102,-0.100054,-0.980751
2025-01-15T10:01:05.040Z,0.034423,0.013521,-1.037878
2025-01-15T10:01:05.080Z,0.023547,-0.022108,-0.943186
2025-01-15T10:01:05.120Z,0.0172,0.027273,-1.043685
2025-01-15T10:01:05.160Z,0.053973,0.026803,-0.975541
2025-01-15T10:01:05.200Z,-0.010255,-0.019836,-0.951973
2025-01-15T10:01:05.240Z,0.063117,0.015055,-1.033906
2025-01-15T10:01:05.280Z,0.020233,0.02704,-0.977092
2025-01-15T10:01:05.320Z,0.008386,0.016915,-0.985645
2025-01-15T10:01:05.360Z,-0.011489,-0.01272,-0.983888
2025-01-15T10:01:05.400Z,0.022596,-0.022036,-1.011621
2025-01-15T10:01:05.440Z,0.03217,0.038151,-0.991585
2025-01-15T10:01:05.480Z,-0.038379,-0.026722,-1.003168
2025-01-15T10:01:05.520Z,0.047481,-0.071874,-1.035421
2025-01-15T10:01:05.560Z,-0.033559,0.022406,-0.957244
2025-01-15T10:01:05.600Z,-0.022057,0.030416,-0.969891
2025-01-15T10:01:05.640Z,-0.000826,-0.010764,-1.038766
2025-01-15T10:01:05.680Z,0.025309,0.014571,-0.995941
2025-01-15T10:01:05.720Z,0.03478,-0.000532,-1.023104
2025-01-15T10:01:05.760Z,-0.003484,0.045953,-1.004484
2025-01-15T10:01:05.800Z,-0.016415,0.00771,-1.079722
2025-01-15T10:01:05.840Z,0.020638,0.048089,-1.030276
2025-01-15T10:01:05.880Z,-0.006243,-0.019786,-0.995287
2025-01-15T10:01:05.920Z,-0.033963,-0.045146,-1.985383
2025-01-15T10:01:05.960Z,-0.033418,0.022076,-0.999453
2025-01-15T10:01:06.000Z,-0.035393,-0.031466,-0.947578
2025-01-15T10:01:06.040Z,0.03889,-0.021322,-1.097579
2025-01-15T10:01:06.080Z,0.035594,-0.008497,-1.064872
2025-01-15T10:01:06.120Z,-0.016663,-0.004646,-0.99881
2025-01-15T10:01:06.160Z,-0.022656,0.02928,-0.95433
2025-01-15T10:01:06.200Z,0.007819,-0.001095,-1.032219
2025-01-15T10:01:06.240Z,-0.013526,-0.060915,-0.988679
2025-01-15T10:01:06.280Z,-0.034276,0.003056,-0.944218
2025-01-15T10:01:06.320Z,-0.041565,0.049209,-0.930237
2025-01-15T10:01:06.360Z,0.009402,-0.013626,-0.940905
2025-01-15T10:01:06.400Z,-0.016713,0.009121,-1.069154
2025-01-15T10:01:06.440Z,0.023903,-0.026374,-0.966237
2025-01-15T10:01:06.480Z,-0.019308,-0.016664,-1.055864
2025-01-15T10:01:06.520Z,0.02132,-0.039109,-0.985303
2025-01-15T10:01:06.560Z,-0.029741,0.03488,-0.960036
2025-01-15T10:01:06.600Z,0.039074,0.064436,-0.985038
2025-01-15T10:01:06.640Z,-0.009143,0.016399,-0.95818
2025-01-15T10:01:06.680Z,0.057042,-0.999927,-0.965633
2025-01-15T10:01:06.720Z,-0.036539,-0.010234,-1.077212
2025-01-15T10:01:06.760Z,0.002462,-0.034453,-1.011169
2025-01-15T10:01:06.800Z,0.026694,-0.012486,-1.00116
2025-01-15T10:01:06.840Z,0.041914,0.007519,-1.026052
2025-01-15T10:01:06.880Z,-0.017342,-0.023732,-0.96949
2025-01-15T10:01:06.920Z,0.007681,0.029232,-1.029386
2025-01-15T10:01:06.960Z,-0.000407,0.043692,-0.99549
2025-01-15T10:01:07.000Z,0.001086,-0.028638,-2.041829
2025-01-15T10:01:07.040Z,-0.034026,-0.017047,-0.982181
2025-01-15T10:01:07.080Z,-0.04384,0.035097,-0.957612
2025-01-15T10:01:07.120Z,0.059752,-0.024159,-1.009571
2025-01-15T10:01:07.160Z,0.029352,0.033317,-0.980212
2025-01-15T10:01:07.200Z,-0.007642,0.014754,-0.953839
2025-01-15T10:01:07.240Z,-0.029399,-0.009374,-0.985873
2025-01-15T10:01:07.280Z,-0.015698,0.018492,-1.028844
2025-01-15T10:01:07.320Z,-0.008922,-0.019113,-1.013682
2025-01-15T10:01:07.360Z,-0.050866,0.047728,-1.054558
2025-01-15T10:01:07.400Z,0.037943,0.002895,-1.012826
2025-01-15T10:01:07.440Z,0.024651,0.029704,-0.974553
2025-01-15T10:01:07.480Z,-0.015117,0.011569,-0.939973
2025-01-15T10:01:07.520Z,0.021942,-0.014052,-1.004123
2025-01-15T10:01:07.560Z,-0.039634,-0.015795,0.073192
2025-01-15T10:01:07.600Z,-0.021101,-0.012314,-1.031824
2025-01-15T10:01:07.640Z,-0.046147,0.027767,-0.968515
2025-01-15T10:01:07.680Z,-0.017707,0.017676,-1.011917
2025-01-15T10:01:07.720Z,-0.04664,0.029121,-1.039088
2025-01-15T10:01:07.760Z,0.024325,-0.003354,-0.959749
2025-01-15T10:01:07.800Z,-0.022469,0.020936,-0.982793
2025-01-15T10:01:07.840Z,-0.01255,-0.00731,-1.015826
2025-01-15T10:01:07.880Z,0.011792,0.038008,-0.950606
2025-01-15T10:01:07.920Z,-0.002507,0.017834,-0.956472
2025-01-15T10:01:07.960Z,0.004122,0.0493,-1.005377
2025-01-15T10:01:08.000Z,0.069387,0.002026,-0.977446
2025-01-15T10:01:08.040Z,-0.014221,0.055183,-0.990333
2025-01-15T10:01:08.080Z,0.072163,0.011973,-0.999002
2025-01-15T10:01:08.120Z,-0.010984,-0.027589,-1.026858
2025-01-15T10:01:08.160Z,0.078789,-0.008127,-0.99265
2025-01-15T10:01:08.200Z,0.005806,-0.018419,-0.997137
2025-01-15T10:01:08.240Z,-0.020907,-0.01026,-1.027481
2025-01-15T10:01:08.280Z,0.021008,-0.036653,-0.970556
2025-01-15T10:01:08.320Z,0.051424,-0.002219,-1.031305
2025-01-15T10:01:08.360Z,0.005119,-0.006253,-1.017434
2025-01-15T10:01:08.400Z,-0.043565,-0.028266,-0.951209
2025-01-15T10:01:08.440Z,-0.013168,0.022739,-1.017269
2025-01-15T10:01:08.480Z,0.034054,0.050224,-1.039744
2025-01-15T10:01:08.520Z,-0.053588,0.045203,-1.01051
2025-01-15T10:01:08.560Z,0.005062,0.029443,-1.032657
2025-01-15T10:01:08.600Z,-0.024293,0.091708,-0.986449
2025-01-15T10:01:08.640Z,0.031554,0.018063,-1.043192
2025-01-15T10:01:08.680Z,-0.044838,0.006166,-1.031927
2025-01-15T10:01:08.720Z,-0.005686,0.061824,-0.99331
2025-01-15T10:01:08.760Z,0.023429,0.012379,-0.976812
2025-01-15T10:01:08.800Z,-0.008203,-0.03291,-0.998836
2025-01-15T10:01:08.840Z,0.027574,-0.007992,-1.038665
2025-01-15T10:01:08.880Z,-0.010129,-0.035024,-0.919267
2025-01-15T10:01:08.920Z,-0.020041,-0.004633,-0.994494
2025-01-15T10:01:08.960Z,-0.050925,-0.045026,-0.988906
2025-01-15T10:01:09.000Z,-0.002358,-0.04003,-1.019368
2025-01-15T10:01:09.040Z,-0.065356,0.01859,-0.939516
2025-01-15T10:01:09.080Z,-0.060869,0.047577,-1.025445
2025-01-15T10:01:09.120Z,0.014599,0.018743,-1.035885
2025-01-15T10:01:09.160Z,-0.064417,-0.022464,-1.019677
2025-01-15T10:01:09.200Z,-0.032012,-0.007925,-1.040936
2025-01-15T10:01:09.240Z,-0.013435,-0.009953,-0.950706
2025-01-15T10:01:09.280Z,-0.009828,-0.025842,-0.996041
2025-01-15T10:01:09.320Z,-0.019257,0.025046,-1.056561
2025-01-15T10:01:09.360Z,-0.00102,-0.014687,-0.991215
2025-01-15T10:01:09.400Z,0.018966,0.036919,-0.983497
2025-01-15T10:01:09.440Z,0.05224,-0.010991,-0.993145
2025-01-15T10:01:09.480Z,0.01869,-0.01085,-1.011688
2025-01-15T10:01:09.520Z,0.041291,0.004163,-0.902012
2025-01-15T10:01:09.560Z,0.002191,0.00596,-0.970155
2025-01-15T10:01:09.600Z,0.025247,0.029873,-0.937424
2025-01-15T10:01:09.640Z,-0.00687,-0.027853,-0.995046
2025-01-15T10:01:09.680Z,-0.027218,-0.000997,-0.941475
2025-01-15T10:01:09.720Z,0.037089,-0.002204,-1.05395
2025-01-15T10:01:09.760Z,-0.002949,-0.05133,-1.002864
2025-01-15T10:01:09.800Z,0.02165,0.01973,-0.924772
2025-01-15T10:01:09.840Z,-0.025687,0.02411,-1.034031
2025-01-15T10:01:09.880Z,0.049505,-0.013588,-0.914529
2025-01-15T10:01:09.920Z,1.007982,0.020916,-1.057187
2025-01-15T10:01:09.960Z,0.015815,0.030118,-0.964843
2025-01-15T10:01:10.000Z,0.997405,-0.021759,-1.041368
2025-01-15T10:01:10.040Z,0.007675,0.001191,-0.98336
2025-01-15T10:01:10.080Z,0.0322,0.003586,-1.049089
2025-01-15T10:01:10.120Z,-0.005381,-0.039302,-0.954344
2025-01-15T10:01:10.160Z,0.027087,0.007836,-1.823079
2025-01-15T10:01:10.200Z,0.052426,0.031919,-1.030754
2025-01-15T10:01:10.240Z,-0.033049,0.032314,-0.89559
2025-01-15T10:01:10.280Z,-0.017517,0.021957,-0.981545
2025-01-15T10:01:10.320Z,-0.008587,-0.021992,-1.013669
2025-01-15T10:01:10.360Z,-0.041075,0.006716,-0.997437
2025-01-15T10:01:10.400Z,-0.035859,0.038773,-0.996466
2025-01-15T10:01:10.440Z,0.004422,0.046646,-0.994641
2025-01-15T10:01:10.480Z,-0.005595,0.008971,-0.986057
2025-01-15T10:01:10.520Z,0.005421,-0.017994,-0.988897
2025-01-15T10:01:10.560Z,0.005547,-0.061237,-0.980046
2025-01-15T10:01:10.600Z,-0.008013,-0.018276,-1.02766
2025-01-15T10:01:10.640Z,0.043354,0.01649,-1.022045
2025-01-15T10:01:10.680Z,-0.043335,-0.019242,-1.051695
2025-01-15T10:01:10.720Z,0.010277,-0.00283,-0.975462
2025-01-15T10:01:10.760Z,-0.008586,-0.013529,-0.993248
2025-01-15T10:01:10.800Z,0.059877,0.007326,-1.019262
2025-01-15T10:01:10.840Z,-0.043429,-0.011213,-1.050709
2025-01-15T10:01:10.880Z,-0.005823,0.00367,-0.997857
2025-01-15T10:01:10.920Z,0.031429,0.041366,-1.007772
2025-01-15T10:01:10.960Z,-0.00588,-0.032171,-1.055036
2025-01-15T10:01:11.000Z,-0.015795,0.009957,-1.025047
2025-01-15T10:01:11.040Z,0.018654,0.003394,-0.974831
2025-01-15T10:01:11.080Z,0.054374,-0.009253,-1.103732
2025-01-15T10:01:11.120Z,0.074125,-0.022224,-0.998605
2025-01-15T10:01:11.160Z,0.007317,-0.0415,-1.033037
2025-01-15T10:01:11.200Z,-0.006715,-0.045944,-0.964479
2025-01-15T10:01:11.240Z,-0.058306,-0.009681,-1.026953
2025-01-15T10:01:11.280Z,-0.017535,-0.028615,-1.020824
2025-01-15T10:01:11.320Z,-0.039631,-0.041898,-0.915362
2025-01-15T10:01:11.360Z,-0.005386,0.010681,-1.012828
2025-01-15T10:01:11.400Z,-0.007594,-0.0812,-1.011061
2025-01-15T10:01:11.440Z,-0.027879,-0.029282,-0.953281
2025-01-15T10:01:11.480Z,-0.008164,0.018199,-0.993809
2025-01-15T10:01:11.520Z,-0.008974,0.065016,-1.023615
2025-01-15T10:01:11.560Z,0.02757,-0.0109,-0.967785
2025-01-15T10:01:11.600Z,0.055613,0.002041,-1.023928
2025-01-15T10:01:11.640Z,0.015553,9.5e-05,-0.966738
2025-01-15T10:01:11.680Z,-0.03497,0.013461,-1.010228
2025-01-15T10:01:11.720Z,0.047758,0.029631,-0.959576
2025-01-15T10:01:11.760Z,0.003946,-0.014103,-0.943286
2025-01-15T10:01:11.800Z,0.026498,0.092692,-0.984229
2025-01-15T10:01:11.840Z,0.004363,0.019513,-0.973976
2025-01-15T10:01:11.880Z,-0.086983,0.018404,-1.036713
2025-01-15T10:01:11.920Z,-0.015397,-0.026677,-0.950576
2025-01-15T10:01:11.960Z,0.026817,-0.026597,-0.90675
2025-01-15T10:01:12.000Z,-0.02486,0.008842,-0.9994
2025-01-15T10:01:12.040Z,0.020246,0.022,-0.991599
2025-01-15T10:01:12.080Z,-0.040732,-0.018005,-0.974379
2025-01-15T10:01:12.120Z,-0.003316,0.030007,-1.047723
2025-01-15T10:01:12.160Z,0.009478,-0.002672,-1.010251
2025-01-15T10:01:12.200Z,0.013103,0.014233,-0.985817
2025-01-15T10:01:12.240Z,0.014615,0.001808,-1.037252
2025-01-15T10:01:12.280Z,1.149341,-0.028051,-0.950993
2025-01-15T10:01:12.320Z,0.019319,-0.010268,-0.94802
2025-01-15T10:01:12.360Z,-0.03213,0.060882,-0.954017
2025-01-15T10:01:12.400Z,0.001256,-0.02959,-1.048986
2025-01-15T10:01:12.440Z,-0.02495,0.043998,-1.046734
2025-01-15T10:01:12.480Z,-0.006148,-0.044168,-1.025281
2025-01-15T10:01:12.520Z,0.053137,0.010462,-1.001079
2025-01-15T10:01:12.560Z,0.002002,0.011264,-0.987678
2025-01-15T10:01:12.600Z,0.008347,0.010832,-0.946535
2025-01-15T10:01:12.640Z,-0.006777,-0.043805,-1.019082
2025-01-15T10:01:12.680Z,-0.01723,-0.001583,-1.048268
2025-01-15T10:01:12.720Z,-0.005933,-0.016237,-1.012991
2025-01-15T10:01:12.760Z,0.023721,-0.006454,-0.949862
2025-01-15T10:01:12.800Z,0.031083,0.075798,-1.034853
2025-01-15T10:01:12.840Z,0.002783,-0.041116,-0.115236
2025-01-15T10:01:12.880Z,-0.00735,-0.034962,-1.000702
2025-01-15T10:01:12.920Z,0.017781,0.007552,-1.003525
2025-01-15T10:01:12.960Z,-0.011172,-0.017227,-1.007629
2025-01-15T10:01:13.000Z,0.000446,-0.037119,-1.059994
2025-01-15T10:01:13.040Z,-0.032518,0.018557,-0.980715
2025-01-15T10:01:13.080Z,-0.012802,0.03536,-0.981572
2025-01-15T10:01:13.120Z,0.043852,-0.002831,-0.988398
2025-01-15T10:01:13.160Z,-0.048216,0.007138,-0.986595
2025-01-15T10:01:13.200Z,-0.005727,0.020623,-1.03807
2025-01-15T10:01:13.240Z,0.018355,0.031806,-0.975454
2025-01-15T10:01:13.280Z,0.059488,-0.025728,-1.057977
2025-01-15T10:01:13.320Z,0.01283,-0.022345,-1.068173
2025-01-15T10:01:13.360Z,-0.070101,0.003153,-0.980748
2025-01-15T10:01:13.400Z,0.01504,-0.023866,-0.987606
2025-01-15T10:01:13.440Z,0.035648,-0.026874,-1.066038
2025-01-15T10:01:13.480Z,0.016694,-0.055855,-1.024361
2025-01-15T10:01:13.520Z,-0.002342,0.013614,-1.080582
2025-01-15T10:01:13.560Z,-0.030107,-0.044122,-1.018252
2025-01-15T10:01:13.600Z,0.023244,0.02878,-1.03579
2025-01-15T10:01:13.640Z,-0.024088,0.032349,-0.971821
2025-01-15T10:01:13.680Z,0.015988,0.005831,-1.013209
2025-01-15T10:01:13.720Z,-0.019814,-0.024016,-0.908903
2025-01-15T10:01:13.760Z,0.035757,0.000957,-1.044257
2025-01-15T10:01:13.800Z,-0.004047,-0.008793,-1.032922
2025-01-15T10:01:13.840Z,-0.000644,0.009921,-0.976053
2025-01-15T10:01:13.880Z,-0.022911,0.01887,-0.949396
2025-01-15T10:01:13.920Z,-0.003734,-0.044279,-1.008756
2025-01-15T10:01:13.960Z,-0.024475,0.056046,-0.92789
2025-01-15T10:01:14.000Z,-0.005019,0.018941,-0.955135
2025-01-15T10:01:14.040Z,-0.040961,0.060122,-1.018648
2025-01-15T10:01:14.080Z,0.056684,-0.005397,-1.029257
2025-01-15T10:01:14.120Z,0.016485,0.028056,-1.071944
2025-01-15T10:01:14.160Z,-0.020445,0.034641,-1.031805
2025-01-15T10:01:14.200Z,-0.019015,0.034197,-1.038836
2025-01-15T10:01:14.240Z,0.038268,0.002145,-1.007555
2025-01-15T10:01:14.280Z,0.02186,0.015483,-1.018188
2025-01-15T10:01:14.320Z,-0.10021,-0.001377,-0.983769
2025-01-15T10:01:14.360Z,-0.030193,0.032276,-0.972175
2025-01-15T10:01:14.400Z,-0.005593,0.032829,-1.044796
2025-01-15T10:01:14.440Z,-0.05851,-0.007295,-1.017056
2025-01-15T10:01:14.480Z,0.018912,-0.019815,-1.000149
2025-01-15T10:01:14.520Z,0.003219,0.024173,-0.949154
2025-01-15T10:01:14.560Z,-0.006563,0.005414,-1.031498
2025-01-15T10:01:14.600Z,-0.052133,-0.052988,-1.031571
2025-01-15T10:01:14.640Z,0.002869,-0.003546,-0.998113
2025-01-15T10:01:14.680Z,0.009248,0.034629,-1.016378
2025-01-15T10:01:14.720Z,-0.016955,-0.07229,-0.947271
2025-01-15T10:01:14.760Z,0.028144,-0.022015,-0.983061
2025-01-15T10:01:14.800Z,-0.046477,-0.04588,-1.004461
2025-01-15T10:01:14.840Z,-0.008149,0.002816,-1.052162
2025-01-15T10:01:14.880Z,0.007409,0.008856,-0.970482
2025-01-15T10:01:14.920Z,-0.008497,-0.004779,-0.938553
2025-01-15T10:01:14.960Z,-0.027774,-0.028297,-0.995562
2025-01-15T10:01:15.000Z,0.003787,0.023332,-0.998567
2025-01-15T10:01:15.040Z,-0.035422,0.029822,-1.060665
2025-01-15T10:01:15.080Z,-0.006197,-0.006927,-1.031325
2025-01-15T10:01:15.120Z,0.004515,0.028539,-1.040389
2025-01-15T10:01:15.160Z,0.012262,0.048299,-1.07943
2025-01-15T10:01:15.200Z,0.008996,-0.036957,-0.965026
2025-01-15T10:01:15.240Z,-0.0218,-0.034137,-1.030052
2025-01-15T10:01:15.280Z,-0.012913,0.029258,-1.035082
2025-01-15T10:01:15.320Z,0.00388,-0.054561,-1.050441
2025-01-15T10:01:15.360Z,0.013287,-0.064481,-0.999118
2025-01-15T10:01:15.400Z,-0.056018,0.000916,-0.991007
2025-01-15T10:01:15.440Z,-0.009601,0.010492,-1.032849
2025-01-15T10:01:15.480Z,0.027512,-0.014557,-0.981841
2025-01-15T10:01:15.520Z,-0.063617,0.007942,-1.019173
2025-01-15T10:01:15.560Z,-0.000208,-0.021823,-0.970624
2025-01-15T10:01:15.600Z,-0.030228,0.011391,-1.013475
2025-01-15T10:01:15.640Z,-0.016167,0.042481,-0.968549
2025-01-15T10:01:15.680Z,-0.035198,0.016706,-1.003045
2025-01-15T10:01:15.720Z,-0.00273,0.028469,-0.965511
2025-01-15T10:01:15.760Z,0.041484,0.005783,-0.97916
2025-01-15T10:01:15.800Z,-0.000298,0.019219,-1.018557
2025-01-15T10:01:15.840Z,-0.056755,0.040528,-1.019137
2025-01-15T10:01:15.880Z,0.021468,-0.015181,-0.938647
2025-01-15T10:01:15.920Z,0.090881,-0.009047,-1.047669
2025-01-15T10:01:15.960Z,0.052208,-0.007173,-1.028672
2025-01-15T10:01:16.000Z,0.03708,-0.027958,-0.976701
2025-01-15T10:01:16.040Z,-0.011704,-0.015066,-0.998008
2025-01-15T10:01:16.080Z,0.010207,0.054378,-1.024512
2025-01-15T10:01:16.120Z,-0.034082,-0.035866,-0.919612
2025-01-15T10:01:16.160Z,0.008298,0.009668,-0.973279
2025-01-15T10:01:16.200Z,0.014315,-0.032464,-0.981921
2025-01-15T10:01:16.240Z,-0.022236,-0.038258,-1.050365
2025-01-15T10:01:16.280Z,0.01977,-0.011026,-0.977929
2025-01-15T10:01:16.320Z,0.01885,-0.062807,-0.996105
2025-01-15T10:01:16.360Z,0.006053,-0.01558,-0.996681
2025-01-15T10:01:16.400Z,0.011026,-0.025013,-1.056955
2025-01-15T10:01:16.440Z,0.06069,0.000657,-0.986717
2025-01-15T10:01:16.480Z,0.050725,-0.035964,-0.90585
2025-01-15T10:01:16.520Z,0.033917,-0.059548,-1.018865
2025-01-15T10:01:16.560Z,-0.01311,-0.025761,-0.975724
2025-01-15T10:01:16.600Z,-0.002808,0.034482,-1.041186
2025-01-15T10:01:16.640Z,0.012101,0.001326,-1.024082
2025-01-15T10:01:16.680Z,-0.019657,0.02904,-1.023473
2025-01-15T10:01:16.720Z,0.014341,-0.006619,-0.990106
2025-01-15T10:01:16.760Z,0.04067,0.036578,-0.996412
2025-01-15T10:01:16.800Z,-0.028195,-0.009243,-1.013433
2025-01-15T10:01:16.840Z,-0.074283,0.047135,-1.012062
2025-01-15T10:01:16.880Z,0.022798,0.021145,-0.99331
2025-01-15T10:01:16.920Z,0.021702,-0.039882,-1.041198
2025-01-15T10:01:16.960Z,0.054063,0.010913,-1.00867
2025-01-15T10:01:17.000Z,-0.000783,-0.020834,-1.041386
2025-01-15T10:01:17.040Z,0.007472,0.040619,-1.081195
2025-01-15T10:01:17.080Z,0.026393,0.01032,-1.026436
2025-01-15T10:01:17.120Z,0.016735,0.013939,-0.940899
2025-01-15T10:01:17.160Z,0.007288,0.038822,-0.978192
2025-01-15T10:01:17.200Z,0.017179,0.014934,-1.005798
2025-01-15T10:01:17.240Z,-0.006885,-0.057,-0.891238
2025-01-15T10:01:17.280Z,8.4e-05,0.01956,-0.939543
2025-01-15T10:01:17.320Z,-0.036134,0.035851,-0.957599
2025-01-15T10:01:17.360Z,-0.019429,-0.047638,-1.00507
2025-01-15T10:01:17.400Z,0.03842,0.040727,-0.995184
2025-01-15T10:01:17.440Z,0.04438,0.055581,-1.017168
2025-01-15T10:01:17.480Z,0.035102,0.000993,-1.039082
2025-01-15T10:01:17.520Z,-0.001943,0.048005,-0.971577
2025-01-15T10:01:17.560Z,0.033055,0.015934,-0.968741
2025-01-15T10:01:17.600Z,0.054535,-0.00469,-1.028945
2025-01-15T10:01:17.640Z,0.049554,-0.011643,-1.038246
2025-01-15T10:01:17.680Z,-0.021422,0.045704,-1.072234
2025-01-15T10:01:17.720Z,0.050144,-0.025395,-0.97897
2025-01-15T10:01:17.760Z,0.028505,0.019661,-1.049817
2025-01-15T10:01:17.800Z,-0.005173,0.029194,-1.018189
2025-01-15T10:01:17.840Z,-0.016173,-0.00765,-1.036075
2025-01-15T10:01:17.880Z,-0.005773,-1.144074,-0.960743
2025-01-15T10:01:17.920Z,0.041209,0.045667,-1.024966
2025-01-15T10:01:17.960Z,0.035556,-0.009771,-0.990769
2025-01-15T10:01:18.000Z,0.02021,-0.03955,-1.026288
2025-01-15T10:01:18.040Z,0.033946,-0.028772,-1.067967
2025-01-15T10:01:18.080Z,-0.011513,-0.035413,-0.989329
2025-01-15T10:01:18.120Z,-0.03007,-0.037331,-0.995211
2025-01-15T10:01:18.160Z,0.023226,-0.008592,-1.025905
2025-01-15T10:01:18.200Z,-0.038876,-0.021563,-0.980156
2025-01-15T10:01:18.240Z,-0.043325,0.046779,-1.041679
2025-01-15T10:01:18.280Z,-0.023027,-0.902007,-0.978508
2025-01-15T10:01:18.320Z,0.04552,0.01286,-1.007771
2025-01-15T10:01:18.360Z,0.0305,-0.061576,-0.979878
2025-01-15T10:01:18.400Z,-0.000618,-0.022578,-0.925566
2025-01-15T10:01:18.440Z,0.04618,-0.009768,-0.951024
2025-01-15T10:01:18.480Z,0.056482,0.023686,-0.925774
2025-01-15T10:01:18.520Z,0.012629,-0.014232,-1.029653
2025-01-15T10:01:18.560Z,-0.000482,0.022877,-1.044428
2025-01-15T10:01:18.600Z,-0.022131,-0.015842,-0.956832
2025-01-15T10:01:18.640Z,-0.03932,-0.033703,-1.002342
2025-01-15T10:01:18.680Z,0.057788,0.00946,-0.995413
2025-01-15T10:01:18.720Z,-0.009685,-0.043143,-0.99416
2025-01-15T10:01:18.760Z,-0.028614,-0.011165,-1.003526
2025-01-15T10:01:18.800Z,-0.023311,-0.033432,-0.929245
2025-01-15T10:01:18.840Z,-1.073164,-0.019906,-1.013713
2025-01-15T10:01:18.880Z,-0.00088,-0.038369,-1.090444
2025-01-15T10:01:18.920Z,0.007994,0.020776,-0.931794
2025-01-15T10:01:18.960Z,-0.016732,-0.078903,-1.043065
2025-01-15T10:01:19.000Z,0.026772,-0.015588,-0.963642
2025-01-15T10:01:19.040Z,-0.040717,-0.060563,-0.988543
2025-01-15T10:01:19.080Z,-0.051007,-0.04208,-1.011607
2025-01-15T10:01:19.120Z,-0.010494,0.022218,-0.932782
2025-01-15T10:01:19.160Z,-0.01156,-0.006713,-2.064486
2025-01-15T10:01:19.200Z,-0.07686,-0.011383,-0.975629
2025-01-15T10:01:19.240Z,-0.018045,-0.002139,-0.953893
2025-01-15T10:01:19.280Z,-0.027501,0.048778,-0.974586
2025-01-15T10:01:19.320Z,0.00158,0.001609,-0.975119
2025-01-15T10:01:19.360Z,0.010347,-0.031317,-1.06408
2025-01-15T10:01:19.400Z,0.018726,0.036367,-1.020212
2025-01-15T10:01:19.440Z,0.03234,-0.012281,-1.067985
2025-01-15T10:01:19.480Z,-0.031994,0.021617,-1.046311
2025-01-15T10:01:19.520Z,0.034166,-0.004791,-1.056086
2025-01-15T10:01:19.560Z,0.008455,0.027374,-0.929139
2025-01-15T10:01:19.600Z,-0.006733,0.00638,-0.993027
2025-01-15T10:01:19.640Z,-0.019051,-0.014787,-0.929748
2025-01-15T10:01:19.680Z,-0.010273,0.004657,-0.997885
2025-01-15T10:01:19.720Z,-0.048198,0.02131,-0.956098
2025-01-15T10:01:19.760Z,0.006652,-0.020459,-0.988552
2025-01-15T10:01:19.800Z,-0.068392,0.021482,-1.017538
2025-01-15T10:01:19.840Z,0.010348,-0.018955,-0.990796
2025-01-15T10:01:19.880Z,0.033073,0.000172,-0.94994
2025-01-15T10:01:19.920Z,-0.003161,0.00912,-0.985528
2025-01-15T10:01:19.960Z,0.068932,-0.037939,-1.083695
2025-01-15T10:01:20.000Z,0.072934,0.00437,-1.047488
2025-01-15T10:01:20.040Z,0.001831,0.016342,-0.986096
2025-01-15T10:01:20.080Z,-0.007645,-0.081939,-0.959812
2025-01-15T10:01:20.120Z,0.020269,-0.041156,-0.994822
2025-01-15T10:01:20.160Z,-0.028426,0.004571,-0.963804
2025-01-15T10:01:20.200Z,-0.018327,-0.015686,-1.01904
2025-01-15T10:01:20.240Z,-0.028017,-0.054042,-0.973394
2025-01-15T10:01:20.280Z,0.03814,0.010497,-0.952181
2025-01-15T10:01:20.320Z,-0.019771,0.032645,-0.964007
2025-01-15T10:01:20.360Z,-0.007254,0.035835,-1.046513
2025-01-15T10:01:20.400Z,-0.041341,-0.001664,-0.963935
2025-01-15T10:01:20.440Z,-0.051192,0.025459,-0.966431
2025-01-15T10:01:20.480Z,0.025388,-0.024255,-1.013307
2025-01-15T10:01:20.520Z,-0.0157,0.081036,-0.992515
2025-01-15T10:01:20.560Z,-0.003484,-0.007235,-0.964971
2025-01-15T10:01:20.600Z,0.0123,-0.046034,-0.900928
2025-01-15T10:01:20.640Z,-0.031366,0.032694,-0.997232
2025-01-15T10:01:20.680Z,-0.035923,0.020295,-0.985752
2025-01-15T10:01:20.720Z,0.001976,-0.044558,-0.986835
2025-01-15T10:01:20.760Z,-0.03967,0.038227,-1.047647
2025-01-15T10:01:20.800Z,-0.002334,-0.011004,-1.002848
2025-01-15T10:01:20.840Z,0.022611,0.007257,-1.013601
2025-01-15T10:01:20.880Z,0.017998,-0.006635,-0.989437
2025-01-15T10:01:20.920Z,-0.023046,0.066047,-0.967873
2025-01-15T10:01:20.960Z,-0.006022,0.001962,-0.962098
2025-01-15T10:01:21.000Z,-0.014235,-0.01902,-1.090736
2025-01-15T10:01:21.040Z,-0.022362,-0.029276,-1.002816
2025-01-15T10:01:21.080Z,0.040825,-0.031593,-1.011242
2025-01-15T10:01:21.120Z,-0.022997,0.008179,-1.055821
2025-01-15T10:01:21.160Z,0.040188,0.051097,-0.94393
2025-01-15T10:01:21.200Z,-0.052251,-0.038317,-1.067262
2025-01-15T10:01:21.240Z,0.043325,-0.029482,-0.968863
2025-01-15T10:01:21.280Z,-0.035859,0.001607,-0.956412
2025-01-15T10:01:21.320Z,0.03283,0.016876,-0.975361
2025-01-15T10:01:21.360Z,0.010855,-0.010645,-1.019497
2025-01-15T10:01:21.400Z,0.00701,-0.016083,-0.996692
2025-01-15T10:01:21.440Z,-0.037109,0.013401,-1.037521
2025-01-15T10:01:21.480Z,-0.016812,-0.07031,-1.006253
2025-01-15T10:01:21.520Z,0.026151,-0.018419,-1.054932
2025-01-15T10:01:21.560Z,0.071792,-0.046618,-1.031043
2025-01-15T10:01:21.600Z,0.020533,-0.001501,-0.94219
2025-01-15T10:01:21.640Z,-0.079885,-0.006084,-0.999914
2025-01-15T10:01:21.680Z,0.006091,0.049626,-1.01835
2025-01-15T10:01:21.720Z,0.038031,-0.024898,-0.959836
2025-01-15T10:01:21.760Z,0.043442,0.036967,-1.023725
2025-01-15T10:01:21.800Z,-0.003081,0.023597,-0.985933
2025-01-15T10:01:21.840Z,0.020427,-0.002327,-1.012252
2025-01-15T10:01:21.880Z,-0.000864,0.021384,-1.03315
2025-01-15T10:01:21.920Z,0.032652,0.00687,-0.986047
2025-01-15T10:01:21.960Z,-0.02577,0.001787,-0.930358
2025-01-15T10:01:22.000Z,0.067045,0.008224,-1.03594
2025-01-15T10:01:22.040Z,-0.003117,0.069151,-0.987313
2025-01-15T10:01:22.080Z,-0.06554,-0.027331,-0.994088
2025-01-15T10:01:22.120Z,-0.039833,-0.003395,-1.058423
2025-01-15T10:01:22.160Z,0.066991,0.016069,-0.993681
2025-01-15T10:01:22.200Z,0.020613,-0.028329,-0.966487
2025-01-15T10:01:22.240Z,-0.02935,-0.027669,-0.977863
2025-01-15T10:01:22.280Z,0.045473,-0.050413,-1.047091
2025-01-15T10:01:22.320Z,0.055154,0.005627,-1.028174
2025-01-15T10:01:22.360Z,0.038138,-0.003466,-1.00887
2025-01-15T10:01:22.400Z,0.021747,-0.01019,-1.043105
2025-01-15T10:01:22.440Z,-0.022209,-0.013133,-0.973259
2025-01-15T10:01:22.480Z,-0.053876,-0.069135,-1.016199
2025-01-15T10:01:22.520Z,-0.025491,-0.017864,-0.990776
2025-01-15T10:01:22.560Z,-0.020339,0.053476,-0.999948
2025-01-15T10:01:22.600Z,0.035174,-0.021332,-1.005461
2025-01-15T10:01:22.640Z,-0.054795,0.045784,-0.958935
2025-01-15T10:01:22.680Z,0.032785,-0.001172,-1.039614
2025-01-15T10:01:22.720Z,0.039519,-0.035456,-0.979415
2025-01-15T10:01:22.760Z,0.0074,0.03482,-1.008264
2025-01-15T10:01:22.800Z,-0.041012,0.057302,-0.933341
2025-01-15T10:01:22.840Z,0.057868,0.015317,-1.100629
2025-01-15T10:01:22.880Z,0.016964,-0.00698,-0.913424
2025-01-15T10:01:22.920Z,-0.010953,0.013047,-1.000128
2025-01-15T10:01:22.960Z,0.001844,0.013878,-1.002249
2025-01-15T10:01:23.000Z,0.033753,0.022798,-0.901007
2025-01-15T10:01:23.040Z,0.044886,-0.025815,-0.997694
2025-01-15T10:01:23.080Z,0.005788,0.002014,-1.001126
2025-01-15T10:01:23.120Z,0.007882,0.056656,-0.97254
2025-01-15T10:01:23.160Z,-0.02921,0.022549,-1.08382
2025-01-15T10:01:23.200Z,-0.028281,0.028679,-1.043462
2025-01-15T10:01:23.240Z,0.014784,0.020714,-0.983286
2025-01-15T10:01:23.280Z,0.023966,0.00367,-1.029186
2025-01-15T10:01:23.320Z,-0.018452,-0.022758,-0.955933
2025-01-15T10:01:23.360Z,-0.030762,0.014552,-0.927227
2025-01-15T10:01:23.400Z,-0.029458,0.053935,-1.058673
2025-01-15T10:01:23.440Z,-0.009477,-0.040449,-0.96642
2025-01-15T10:01:23.480Z,0.014796,-0.017756,-1.062223
2025-01-15T10:01:23.520Z,0.02619,0.025751,-1.020823
2025-01-15T10:01:23.560Z,-0.004436,-0.016708,-0.985799
2025-01-15T10:01:23.600Z,0.04226,0.028543,-0.91742
2025-01-15T10:01:23.640Z,0.009825,-0.021596,-1.016923
2025-01-15T10:01:23.680Z,-0.035672,0.033721,-0.947971
2025-01-15T10:01:23.720Z,-0.013574,-0.04321,-1.049963
2025-01-15T10:01:23.760Z,-0.013914,-0.04087,-1.047945
2025-01-15T10:01:23.800Z,-0.035344,0.012081,-0.981397
2025-01-15T10:01:23.840Z,-0.044056,0.000231,-0.998273
2025-01-15T10:01:23.880Z,-0.058202,-0.013477,-1.018806
2025-01-15T10:01:23.920Z,0.012957,-0.03911,-0.960479
2025-01-15T10:01:23.960Z,0.038512,-0.007391,-1.045659
2025-01-15T10:01:24.000Z,-0.025505,-0.04274,-0.993477
2025-01-15T10:01:24.040Z,-0.038764,-0.026678,-1.050858
2025-01-15T10:01:24.080Z,0.011159,0.043757,-0.997094
2025-01-15T10:01:24.120Z,0.037183,-0.016428,-0.986275
2025-01-15T10:01:24.160Z,-0.015662,-0.006107,-1.029292
2025-01-15T10:01:24.200Z,-0.068054,0.034195,-1.034012
2025-01-15T10:01:24.240Z,0.00855,-0.010772,-1.007947
2025-01-15T10:01:24.280Z,-0.008674,0.0722,-0.980439
2025-01-15T10:01:24.320Z,-0.792628,-0.004272,-0.985205
2025-01-15T10:01:24.360Z,0.023979,0.029174,-1.038196
2025-01-15T10:01:24.400Z,-0.023509,0.015564,-0.93278
2025-01-15T10:01:24.440Z,0.023301,-0.006672,-1.003356
2025-01-15T10:01:24.480Z,0.000112,-0.015631,-1.014623
2025-01-15T10:01:24.520Z,0.036516,0.018725,-1.051552
2025-01-15T10:01:24.560Z,0.015029,-0.069359,-1.012596
2025-01-15T10:01:24.600Z,-0.058338,0.038101,-0.965926
2025-01-15T10:01:24.640Z,-0.025406,-0.0563,-1.021212
2025-01-15T10:01:24.680Z,-0.007233,0.047543,-0.984574
2025-01-15T10:01:24.720Z,-0.044045,-0.053519,-0.942946
2025-01-15T10:01:24.760Z,0.027341,-0.027588,-0.981628
2025-01-15T10:01:24.800Z,0.012511,-0.017586,-0.988876
2025-01-15T10:01:24.840Z,-0.023541,-0.030981,-1.030161
2025-01-15T10:01:24.880Z,-0.028939,-0.006948,-1.013973
2025-01-15T10:01:24.920Z,-0.027393,-0.020938,-1.041249
2025-01-15T10:01:24.960Z,-0.007674,0.032547,-1.065781
2025-01-15T10:01:25.000Z,0.005028,0.017824,-1.018635
2025-01-15T10:01:25.040Z,0.025358,-0.012515,-1.000952
2025-01-15T10:01:25.080Z,0.063881,-0.001855,-1.051817
2025-01-15T10:01:25.120Z,-0.033204,-0.049541,-1.068445
2025-01-15T10:01:25.160Z,0.853964,0.003281,-1.036794
2025-01-15T10:01:25.200Z,0.04948,0.00218,-0.937309
2025-01-15T10:01:25.240Z,0.00477,0.006143,-1.016175
2025-01-15T10:01:25.280Z,0.022053,-0.028863,-0.929794
2025-01-15T10:01:25.320Z,0.045566,-0.036713,-1.001099
2025-01-15T10:01:25.360Z,0.044408,-0.046193,-1.020765
2025-01-15T10:01:25.400Z,0.023595,-0.019872,-0.965845
2025-01-15T10:01:25.440Z,0.01188,-0.012224,-0.919384
2025-01-15T10:01:25.480Z,0.029656,-0.000482,-1.022952
2025-01-15T10:01:25.520Z,0.004839,0.017301,-0.95594
2025-01-15T10:01:25.560Z,-0.027033,-0.022858,-1.023809
2025-01-15T10:01:25.600Z,-0.050511,0.012062,-0.985358
2025-01-15T10:01:25.640Z,0.022822,0.016774,-1.050036
2025-01-15T10:01:25.680Z,0.001606,-0.017472,-0.994967
2025-01-15T10:01:25.720Z,-0.009059,0.043875,-0.955264
2025-01-15T10:01:25.760Z,-0.031572,0.088304,-0.972609
2025-01-15T10:01:25.800Z,0.037904,0.026406,-0.933736
2025-01-15T10:01:25.840Z,0.050769,-0.037593,-0.984042
2025-01-15T10:01:25.880Z,0.020568,0.0362,-0.949007
2025-01-15T10:01:25.920Z,-0.007969,0.084696,-1.057531
2025-01-15T10:01:25.960Z,0.01513,-0.029761,-0.98015
2025-01-15T10:01:26.000Z,0.020056,0.000518,-1.014557
2025-01-15T10:01:26.040Z,0.027036,0.010801,-1.026192
2025-01-15T10:01:26.080Z,0.008345,-0.051712,-0.99482
2025-01-15T10:01:26.120Z,-0.018673,0.00317,-1.003563
2025-01-15T10:01:26.160Z,-0.003085,-0.006384,-0.957903
2025-01-15T10:01:26.200Z,0.002631,0.025551,-0.980694
2025-01-15T10:01:26.240Z,-0.095634,0.008229,-0.958007
2025-01-15T10:01:26.280Z,0.002551,0.016309,-1.013411
2025-01-15T10:01:26.320Z,0.076908,-0.033258,-1.028914
2025-01-15T10:01:26.360Z,-0.044817,-0.018991,-0.988744
2025-01-15T10:01:26.400Z,-0.023125,0.032101,-1.015888
2025-01-15T10:01:26.440Z,0.086912,-0.014302,-0.997343
2025-01-15T10:01:26.480Z,-0.037903,0.020465,-1.023014
2025-01-15T10:01:26.520Z,0.011444,-0.047788,-0.969503
2025-01-15T10:01:26.560Z,0.024806,0.003755,-0.982948
2025-01-15T10:01:26.600Z,-0.003272,0.033854,-1.013016
2025-01-15T10:01:26.640Z,0.042255,-0.013525,-1.055488
2025-01-15T10:01:26.680Z,0.03429,-0.022545,-0.936424
2025-01-15T10:01:26.720Z,-0.019514,0.003193,-0.962925
2025-01-15T10:01:26.760Z,-0.01533,0.005412,-1.06216
2025-01-15T10:01:26.800Z,-0.010367,0.027893,-0.979848
2025-01-15T10:01:26.840Z,-0.007891,0.034699,-1.005527
2025-01-15T10:01:26.880Z,-0.036806,0.038268,-0.961268
2025-01-15T10:01:26.920Z,0.023851,0.023462,-0.898962
2025-01-15T10:01:26.960Z,0.005187,0.024284,-1.018241
2025-01-15T10:01:27.000Z,0.03757,-0.018518,-0.977137
2025-01-15T10:01:27.040Z,-0.006107,-0.026531,-1.012476
2025-01-15T10:01:27.080Z,0.001362,0.03602,-1.018004
2025-01-15T10:01:27.120Z,0.008988,0.04507,-0.959013
2025-01-15T10:01:27.160Z,0.003976,0.023375,-1.046489
2025-01-15T10:01:27.200Z,0.041,0.017789,-1.033617
2025-01-15T10:01:27.240Z,-0.047079,0.013988,-1.043694
2025-01-15T10:01:27.280Z,-0.019048,-0.022674,-0.909189
2025-01-15T10:01:27.320Z,0.052067,0.018307,-0.968118
2025-01-15T10:01:27.360Z,0.014435,0.015401,-0.940989
2025-01-15T10:01:27.400Z,-0.009154,-0.014052,-0.921334
2025-01-15T10:01:27.440Z,0.050666,-0.003372,-0.91355
2025-01-15T10:01:27.480Z,0.02044,0.007665,-1.114495
2025-01-15T10:01:27.520Z,-0.01635,-0.03806,-1.012366
2025-01-15T10:01:27.560Z,-0.03967,-0.000177,-0.974604
2025-01-15T10:01:27.600Z,-0.029444,-0.0783,-0.934274
2025-01-15T10:01:27.640Z,0.035505,-0.021221,-1.024493
2025-01-15T10:01:27.680Z,0.017554,-0.00582,-1.037652
2025-01-15T10:01:27.720Z,-0.002361,-0.015723,-1.067996
2025-01-15T10:01:27.760Z,0.03673,-0.02446,-0.989508
2025-01-15T10:01:27.800Z,-0.040589,-0.00238,-1.040467
2025-01-15T10:01:27.840Z,0.012886,0.005832,-1.013278
2025-01-15T10:01:27.880Z,0.055847,0.003231,-1.030262
2025-01-15T10:01:27.920Z,0.058998,-0.057942,-0.917476
2025-01-15T10:01:27.960Z,0.026662,0.017944,-1.007819
2025-01-15T10:01:28.000Z,0.022523,-0.017616,-1.033135
2025-01-15T10:01:28.040Z,-0.053465,0.038694,-1.007638
2025-01-15T10:01:28.080Z,-0.003899,-0.029275,-1.06371
2025-01-15T10:01:28.120Z,0.047733,-0.018345,-0.984359
2025-01-15T10:01:28.160Z,0.014621,0.023266,-0.992872
2025-01-15T10:01:28.200Z,0.007325,0.021514,-1.072648
2025-01-15T10:01:28.240Z,0.012305,0.004098,-0.936182
2025-01-15T10:01:28.280Z,0.011932,0.016506,-1.005078
2025-01-15T10:01:28.320Z,-0.011849,0.011291,-1.014704
2025-01-15T10:01:28.360Z,0.061556,-0.024456,-0.983446
2025-01-15T10:01:28.400Z,-0.038041,-0.033677,-1.021977
2025-01-15T10:01:28.440Z,-0.012577,0.024194,-2.207889
2025-01-15T10:01:28.480Z,-0.001384,-0.025524,-1.040009
2025-01-15T10:01:28.520Z,-0.040094,0.035878,-1.005792
2025-01-15T10:01:28.560Z,0.038957,-0.035735,-0.962663
2025-01-15T10:01:28.600Z,0.049447,-0.05161,-1.045692
2025-01-15T10:01:28.640Z,0.024134,-0.017178,-0.926673
2025-01-15T10:01:28.680Z,0.013873,0.016052,-0.994776
2025-01-15T10:01:28.720Z,-0.017855,0.015096,-1.01833
2025-01-15T10:01:28.760Z,0.979807,-0.037609,-0.945987
2025-01-15T10:01:28.800Z,0.005888,-0.018108,-1.030309
2025-01-15T10:01:28.840Z,0.002155,0.011524,-1.005942
2025-01-15T10:01:28.880Z,-0.022346,0.04181,-0.940292
2025-01-15T10:01:28.920Z,-0.006417,0.013019,-1.0439
2025-01-15T10:01:28.960Z,0.0125,-0.011405,-0.939299
2025-01-15T10:01:29.000Z,0.000859,-0.004277,-1.071494
2025-01-15T10:01:29.040Z,0.009508,0.030506,-0.993599
2025-01-15T10:01:29.080Z,-0.010709,-0.048374,-0.97989
2025-01-15T10:01:29.120Z,0.008954,0.008229,-1.003695
2025-01-15T10:01:29.160Z,0.048692,0.03919,-1.025078
2025-01-15T10:01:29.200Z,-0.02369,0.03761,-0.948966
2025-01-15T10:01:29.240Z,0.029628,-0.007001,-0.933601
2025-01-15T10:01:29.280Z,0.037083,0.031653,-0.944908
2025-01-15T10:01:29.320Z,0.028145,0.029479,-0.234813
2025-01-15T10:01:29.360Z,0.006838,-0.02524,-1.010707
2025-01-15T10:01:29.400Z,0.042871,0.02614,-0.954812
