timestamp,accelerationX,accelerationY,accelerationZ
2025-01-15T10:00:00.000Z,-0.025028,0.019418,-0.972039
2025-01-15T10:00:00.040Z,0.021554,-0.047859,-0.938414
2025-01-15T10:00:00.080Z,0.005518,0.044239,-2.08953
2025-01-15T10:00:00.120Z,0.012779,-0.023641,-0.986105
2025-01-15T10:00:00.160Z,0.022893,0.038333,-1.068069
2025-01-15T10:00:00.200Z,-0.010941,0.027993,-1.09397
2025-01-15T10:00:00.240Z,-0.012476,0.003585,-0.911185
2025-01-15T10:00:00.280Z,0.017149,0.061364,-1.021853
2025-01-15T10:00:00.320Z,-0.010717,0.061301,-0.998855
2025-01-15T10:00:00.360Z,-0.006319,-0.039265,-0.923756
2025-01-15T10:00:00.400Z,0.028653,0.005696,-0.917314
2025-01-15T10:00:00.440Z,0.028676,-0.02183,-1.087509
2025-01-15T10:00:00.480Z,-1.162865,-0.056917,-0.951614
2025-01-15T10:00:00.520Z,0.071344,-0.000482,-0.986003
2025-01-15T10:00:00.560Z,-0.005659,0.037438,-0.975039
2025-01-15T10:00:00.600Z,0.064057,0.009764,-0.988257
2025-01-15T10:00:00.640Z,0.023009,0.008513,-0.981942
2025-01-15T10:00:00.680Z,0.016358,-0.029191,-1.008495
2025-01-15T10:00:00.720Z,-0.059886,-0.03543,-1.039643
2025-01-15T10:00:00.760Z,0.034233,-0.077676,-0.972548
2025-01-15T10:00:00.800Z,0.048054,-0.032825,-1.04221
2025-01-15T10:00:00.840Z,1.834305,-0.104119,-1.088874
2025-01-15T10:00:00.880Z,0.0334,0.005184,-1.004975
2025-01-15T10:00:00.920Z,-0.046454,0.018524,-1.028665
2025-01-15T10:00:00.960Z,0.028324,-0.043225,-1.037975
2025-01-15T10:00:01.000Z,-0.011925,0.002337,0.696108
2025-01-15T10:00:01.040Z,0.073964,0.021257,-1.045342
2025-01-15T10:00:01.080Z,-0.00184,-0.002499,-1.003095
2025-01-15T10:00:01.120Z,-0.014582,0.002104,-0.929742
2025-01-15T10:00:01.160Z,-0.005401,1.910458,-0.944261
2025-01-15T10:00:01.200Z,-1.437131,0.016819,-1.028683
2025-01-15T10:00:01.240Z,-0.003468,-0.047255,-0.905455
2025-01-15T10:00:01.280Z,-0.158465,0.024031,-1.032532
2025-01-15T10:00:01.320Z,-0.070686,-0.040319,-1.0253
2025-01-15T10:00:01.360Z,-0.081297,-0.045506,-0.941786
2025-01-15T10:00:01.400Z,-0.039422,0.003589,-1.002838
2025-01-15T10:00:01.440Z,0.027285,0.004889,-0.975276
2025-01-15T10:00:01.480Z,-0.005871,0.039378,-1.053534
2025-01-15T10:00:01.520Z,0.00181,-0.03873,-1.022669
2025-01-15T10:00:01.560Z,-0.011793,0.023092,-1.030446
2025-01-15T10:00:01.600Z,0.006796,-0.002616,-0.961562
2025-01-15T10:00:01.640Z,0.01189,-0.009494,-0.966339
2025-01-15T10:00:01.680Z,-0.021366,-0.056919,-1.084504
2025-01-15T10:00:01.720Z,0.051282,0.041966,-1.022067
2025-01-15T10:00:01.760Z,-0.089858,0.01648,-0.925564
2025-01-15T10:00:01.800Z,0.079632,0.012655,-1.068631
2025-01-15T10:00:01.840Z,0.036044,-0.014637,-0.967991
2025-01-15T10:00:01.880Z,-0.034441,-0.065859,-0.925001
2025-01-15T10:00:01.920Z,-0.045203,-0.053845,-0.959089
2025-01-15T10:00:01.960Z,-0.030083,-0.014662,-0.902192
2025-01-15T10:00:02.000Z,-0.006742,-0.075428,-0.991498
2025-01-15T10:00:02.040Z,0.042798,0.034643,-0.996209
2025-01-15T10:00:02.080Z,0.026651,0.040949,-1.018879
2025-01-15T10:00:02.120Z,0.033437,-0.02209,-1.003316
2025-01-15T10:00:02.160Z,0.02406,0.071022,-1.070844
2025-01-15T10:00:02.200Z,-0.05521,-0.013559,-1.047241
2025-01-15T10:00:02.240Z,0.014368,-0.014208,-0.987716
2025-01-15T10:00:02.280Z,0.02094,-0.007068,-0.996013
2025-01-15T10:00:02.320Z,-0.052917,0.033928,-1.012713
2025-01-15T10:00:02.360Z,0.051529,0.029078,-0.921214
2025-01-15T10:00:02.400Z,-0.005412,-0.00112,-1.019703
2025-01-15T10:00:02.440Z,1.019516,-0.024636,-1.016148
2025-01-15T10:00:02.480Z,0.008024,-0.044541,-1.007791
2025-01-15T10:00:02.520Z,-0.007816,0.046447,-1.043236
2025-01-15T10:00:02.560Z,0.039977,-0.010483,-0.964833
2025-01-15T10:00:02.600Z,-1.395559,0.033366,-1.032188
2025-01-15T10:00:02.640Z,-0.039409,0.014036,-0.960471
2025-01-15T10:00:02.680Z,0.065974,-0.028599,-1.001616
2025-01-15T10:00:02.720Z,0.002065,0.022201,-0.956782
2025-01-15T10:00:02.760Z,-0.028958,1.631176,-0.957329
2025-01-15T10:00:02.800Z,-0.060134,-0.019868,-1.023583
2025-01-15T10:00:02.840Z,0.014078,0.023456,-1.035562
2025-01-15T10:00:02.880Z,-0.037507,0.037138,-0.950505
2025-01-15T10:00:02.920Z,-0.02505,-0.041529,-0.909172
2025-01-15T10:00:02.960Z,-0.007891,-0.040693,-1.01453
2025-01-15T10:00:03.000Z,-0.030907,-0.003214,-1.050701
2025-01-15T10:00:03.040Z,0.067294,0.052252,-0.953544
2025-01-15T10:00:03.080Z,0.006859,-0.054741,-1.018982
2025-01-15T10:00:03.120Z,-0.013299,0.006674,-2.590707
2025-01-15T10:00:03.160Z,1.80068,0.045147,-0.990866
2025-01-15T10:00:03.200Z,0.023808,-0.042985,-1.032052
2025-01-15T10:00:03.240Z,0.014218,3e-06,-0.927526
2025-01-15T10:00:03.280Z,-0.040375,-0.059745,-0.875694
2025-01-15T10:00:03.320Z,-0.021162,-0.031732,-0.974097
2025-01-15T10:00:03.360Z,-0.005925,0.020382,-0.972126
2025-01-15T10:00:03.400Z,0.005838,-0.031091,-1.05678
2025-01-15T10:00:03.440Z,-0.028588,0.078177,-0.977212
2025-01-15T10:00:03.480Z,0.016282,-0.009828,-1.048649
2025-01-15T10:00:03.520Z,-0.006537,0.017215,-0.96913
2025-01-15T10:00:03.560Z,-0.058693,0.056701,-1.090625
2025-01-15T10:00:03.600Z,0.031791,0.041381,0.948512
2025-01-15T10:00:03.640Z,0.005063,0.032633,-1.030799
2025-01-15T10:00:03.680Z,0.005986,-0.028272,-1.022191
2025-01-15T10:00:03.720Z,0.016151,-0.073251,-1.066159
2025-01-15T10:00:03.760Z,-0.011945,-0.027554,-1.007101
2025-01-15T10:00:03.800Z,0.038715,0.016613,-0.890191
2025-01-15T10:00:03.840Z,-0.031896,-0.019728,-0.993323
2025-01-15T10:00:03.880Z,-0.091687,-0.025438,-0.90139
2025-01-15T10:00:03.920Z,0.017194,0.040333,-1.031719
2025-01-15T10:00:03.960Z,0.007516,-0.017789,-1.032126
2025-01-15T10:00:04.000Z,0.008565,-0.065479,-1.038579
2025-01-15T10:00:04.040Z,-0.000876,0.026294,-1.028772
2025-01-15T10:00:04.080Z,0.001617,0.0199,-0.964828
2025-01-15T10:00:04.120Z,0.048616,-0.056272,-0.887417
2025-01-15T10:00:04.160Z,0.039881,-0.033366,-1.070042
2025-01-15T10:00:04.200Z,-0.001237,0.029654,-1.000891
2025-01-15T10:00:04.240Z,-0.045982,0.024956,-2.851186
2025-01-15T10:00:04.280Z,-0.051163,-0.007233,-0.957865
2025-01-15T10:00:04.320Z,-0.0359,-0.046797,-1.041315
2025-01-15T10:00:04.360Z,-0.070831,0.005582,-2.776986
2025-01-15T10:00:04.400Z,-0.058322,-0.032124,-0.980542
2025-01-15T10:00:04.440Z,1.8125,-0.012754,-1.057732
2025-01-15T10:00:04.480Z,-0.016784,0.045655,-1.074841
2025-01-15T10:00:04.520Z,-0.03427,0.011907,-1.006514
2025-01-15T10:00:04.560Z,1.5421,0.021759,-0.945923
2025-01-15T10:00:04.600Z,-0.006975,0.050432,-1.006014
2025-01-15T10:00:04.640Z,0.072729,0.008947,-1.046971
2025-01-15T10:00:04.680Z,1.730896,-0.001335,-1.03451
2025-01-15T10:00:04.720Z,0.079803,-0.031739,-0.956126
2025-01-15T10:00:04.760Z,-1.5196,0.023399,-0.99227
2025-01-15T10:00:04.800Z,-0.043987,0.019752,-1.182407
2025-01-15T10:00:04.840Z,0.047963,0.0287,-0.971942
2025-01-15T10:00:04.880Z,-0.038641,0.037327,-1.009756
2025-01-15T10:00:04.920Z,-0.045636,-0.011987,-0.982567
2025-01-15T10:00:04.960Z,-0.021733,-0.013768,-0.989355
2025-01-15T10:00:05.000Z,-0.033583,-0.030767,-0.974719
2025-01-15T10:00:05.040Z,0.010402,-0.009496,-0.952963
2025-01-15T10:00:05.080Z,-0.018932,-0.020973,-1.048136
2025-01-15T10:00:05.120Z,-0.005486,0.009688,-0.951314
2025-01-15T10:00:05.160Z,-0.063887,-0.052217,-1.031051
2025-01-15T10:00:05.200Z,-0.017081,0.012501,-1.061932
2025-01-15T10:00:05.240Z,1.115326,-0.043847,-1.039548
2025-01-15T10:00:05.280Z,0.087678,0.116666,-0.962135
2025-01-15T10:00:05.320Z,0.033723,-0.026739,-0.994642
2025-01-15T10:00:05.360Z,-0.016235,-0.035142,-1.026306
2025-01-15T10:00:05.400Z,-0.053327,0.023955,-0.970893
2025-01-15T10:00:05.440Z,-0.006352,0.059109,-0.922575
2025-01-15T10:00:05.480Z,0.048527,-0.026644,-0.954071
2025-01-15T10:00:05.520Z,0.026028,-0.010915,-0.980947
2025-01-15T10:00:05.560Z,-0.026129,0.03585,-1.024018
2025-01-15T10:00:05.600Z,7.3e-05,-0.048981,-1.052073
2025-01-15T10:00:05.640Z,0.07233,-0.058993,-0.984537
2025-01-15T10:00:05.680Z,0.00534,-1.422713,-0.950687
2025-01-15T10:00:05.720Z,0.013348,0.074527,-1.012607
2025-01-15T10:00:05.760Z,0.002863,1.137022,-1.008222
2025-01-15T10:00:05.800Z,-0.041291,0.028922,-1.087241
2025-01-15T10:00:05.840Z,-0.005123,0.039307,-1.031536
2025-01-15T10:00:05.880Z,-0.043025,1.121634,-1.050526
2025-01-15T10:00:05.920Z,0.027842,0.004402,-0.948289
2025-01-15T10:00:05.960Z,0.060284,-0.047453,-0.996755
2025-01-15T10:00:06.000Z,-0.091321,0.052966,-1.119324
2025-01-15T10:00:06.040Z,-0.086121,-0.029618,-0.985357
2025-01-15T10:00:06.080Z,0.024842,-0.025863,-0.988502
2025-01-15T10:00:06.120Z,0.061765,0.053025,-0.975476
2025-01-15T10:00:06.160Z,-0.075916,-0.040557,-1.067772
2025-01-15T10:00:06.200Z,0.017782,-0.068943,-0.964786
2025-01-15T10:00:06.240Z,-0.003419,0.013255,0.224806
2025-01-15T10:00:06.280Z,0.01524,0.007808,-0.973462
2025-01-15T10:00:06.320Z,0.071805,-0.001986,-1.01708
2025-01-15T10:00:06.360Z,0.026276,0.005353,-0.994852
2025-01-15T10:00:06.400Z,0.009369,-0.017719,-2.682935
2025-01-15T10:00:06.440Z,0.005301,-0.045755,-0.999391
2025-01-15T10:00:06.480Z,-0.063417,-0.026648,-2.129777
2025-01-15T10:00:06.520Z,0.020604,0.016784,-0.986208
2025-01-15T10:00:06.560Z,1.469989,-0.022394,-1.092392
2025-01-15T10:00:06.600Z,0.041853,-0.011349,-2.063694
2025-01-15T10:00:06.640Z,0.024702,0.008326,-0.997666
2025-01-15T10:00:06.680Z,-0.025076,0.066636,-0.982837
2025-01-15T10:00:06.720Z,-0.012862,-0.049317,-1.064002
2025-01-15T10:00:06.760Z,-0.017353,0.038661,-1.033258
2025-01-15T10:00:06.800Z,-0.000473,0.054066,-1.030497
2025-01-15T10:00:06.840Z,0.015207,-0.018725,-0.910729
2025-01-15T10:00:06.880Z,-0.041072,-0.052698,-1.022074
2025-01-15T10:00:06.920Z,0.006716,-0.04436,-0.995997
2025-01-15T10:00:06.960Z,-0.038444,-0.01602,-0.991741
2025-01-15T10:00:07.000Z,-0.026473,-0.066772,-1.062199
2025-01-15T10:00:07.040Z,0.039117,-0.034954,-1.077479
2025-01-15T10:00:07.080Z,-0.009601,-0.009683,-1.024023
2025-01-15T10:00:07.120Z,0.099064,-0.020802,-0.94793
2025-01-15T10:00:07.160Z,0.018684,-1.781034,-1.022402
2025-01-15T10:00:07.200Z,0.014832,0.043665,-0.911314
2025-01-15T10:00:07.240Z,0.029019,-0.008313,-0.97199
2025-01-15T10:00:07.280Z,0.016583,-0.01725,-1.046697
2025-01-15T10:00:07.320Z,-0.0527,0.040007,-0.974014
2025-01-15T10:00:07.360Z,-0.02125,0.010962,-2.500313
2025-01-15T10:00:07.400Z,0.015603,-0.075291,-0.990237
2025-01-15T10:00:07.440Z,0.017203,-0.022539,-0.934906
2025-01-15T10:00:07.480Z,-0.016324,0.015067,-1.001427
2025-01-15T10:00:07.520Z,0.009739,0.021253,-1.04153
2025-01-15T10:00:07.560Z,-0.020046,-0.087026,-1.056176
2025-01-15T10:00:07.600Z,-0.07043,-0.093741,-1.019929
2025-01-15T10:00:07.640Z,-0.021182,1.932645,-0.981758
2025-01-15T10:00:07.680Z,-0.035273,-0.060753,-0.989938
2025-01-15T10:00:07.720Z,0.023256,-0.029329,-1.009464
2025-01-15T10:00:07.760Z,-0.006748,0.009534,-1.01445
2025-01-15T10:00:07.800Z,0.052151,-0.042955,-0.969414
2025-01-15T10:00:07.840Z,0.006725,0.011221,-1.003316
2025-01-15T10:00:07.880Z,-1.314689,0.030418,-1.072241
2025-01-15T10:00:07.920Z,-0.024219,-0.05243,-1.010076
2025-01-15T10:00:07.960Z,-0.069438,0.015743,-1.1135
2025-01-15T10:00:08.000Z,-0.01985,-0.016117,0.893372
2025-01-15T10:00:08.040Z,-0.03011,0.026223,-0.969607
2025-01-15T10:00:08.080Z,0.058712,-0.017136,-1.041201
2025-01-15T10:00:08.120Z,0.015162,0.032672,-1.022257
2025-01-15T10:00:08.160Z,-0.01093,0.015334,-1.008686
2025-01-15T10:00:08.200Z,-0.040325,-0.016891,-1.034192
2025-01-15T10:00:08.240Z,0.053261,0.0623,0.066252
2025-01-15T10:00:08.280Z,-0.036567,-1.152735,-1.086798
2025-01-15T10:00:08.320Z,0.010953,0.015694,-1.031119
2025-01-15T10:00:08.360Z,0.049299,-0.06265,-0.99075
2025-01-15T10:00:08.400Z,0.014805,-0.012358,-0.958364
2025-01-15T10:00:08.440Z,-0.008275,-0.020305,-0.986622
2025-01-15T10:00:08.480Z,-0.027009,0.024034,-0.882054
2025-01-15T10:00:08.520Z,-0.06123,0.028724,-1.097702
2025-01-15T10:00:08.560Z,-0.008219,-0.041055,-0.957426
2025-01-15T10:00:08.600Z,-0.009292,0.007775,-0.940217
2025-01-15T10:00:08.640Z,0.017621,-0.038774,-0.970886
2025-01-15T10:00:08.680Z,0.007419,0.019272,-0.978171
2025-01-15T10:00:08.720Z,-0.00012,0.011945,-0.942255
2025-01-15T10:00:08.760Z,0.002012,0.000938,-0.967756
2025-01-15T10:00:08.800Z,1.698198,-0.079757,-0.98769
2025-01-15T10:00:08.840Z,0.058535,-1.796907,-1.057787
2025-01-15T10:00:08.880Z,-0.078797,-0.015648,-1.012088
2025-01-15T10:00:08.920Z,-0.023063,-0.040456,-0.996145
2025-01-15T10:00:08.960Z,0.049532,0.028161,-1.055918
2025-01-15T10:00:09.000Z,-0.047645,0.001067,-1.034025
2025-01-15T10:00:09.040Z,0.004501,-0.058244,-0.960267
2025-01-15T10:00:09.080Z,-0.023114,0.006291,-1.063043
2025-01-15T10:00:09.120Z,-1.774821,-0.030203,-1.037157
2025-01-15T10:00:09.160Z,0.005032,-0.000355,-0.985185
2025-01-15T10:00:09.200Z,-0.017445,-0.030187,-0.905639
2025-01-15T10:00:09.240Z,0.028509,-0.011164,-0.957927
2025-01-15T10:00:09.280Z,-0.006494,-0.027028,-0.916872
2025-01-15T10:00:09.320Z,-0.012036,0.005691,-1.01009
2025-01-15T10:00:09.360Z,-0.029209,1.831204,-0.877912
2025-01-15T10:00:09.400Z,-0.028461,0.046422,-1.107789
2025-01-15T10:00:09.440Z,0.028974,0.018036,-0.980556
2025-01-15T10:00:09.480Z,0.005337,0.041165,-1.018006
2025-01-15T10:00:09.520Z,0.031405,0.015904,-1.024493
2025-01-15T10:00:09.560Z,0.027036,0.017941,-1.040904
2025-01-15T10:00:09.600Z,-0.025254,0.004729,-0.958008
2025-01-15T10:00:09.640Z,-0.011936,-0.08953,-0.975497
2025-01-15T10:00:09.680Z,0.035096,-0.055036,-1.068181
2025-01-15T10:00:09.720Z,-0.021066,0.05176,-1.014267
2025-01-15T10:00:09.760Z,0.007477,0.025724,-0.998684
2025-01-15T10:00:09.800Z,-0.018813,0.040392,-0.898078
2025-01-15T10:00:09.840Z,-0.002275,-0.01337,-0.999498
2025-01-15T10:00:09.880Z,-0.014991,-0.008204,-1.01489
2025-01-15T10:00:09.920Z,0.015171,0.032739,-1.034002
2025-01-15T10:00:09.960Z,0.029865,0.025813,-0.931387
2025-01-15T10:00:10.000Z,-0.076804,0.023108,-1.035582
2025-01-15T10:00:10.040Z,0.027663,-0.016363,-0.94119
2025-01-15T10:00:10.080Z,0.082595,0.02755,-2.629005
2025-01-15T10:00:10.120Z,0.057037,0.005915,-0.93128
2025-01-15T10:00:10.160Z,-0.033537,0.044125,-0.952229
2025-01-15T10:00:10.200Z,-0.042611,0.036429,-0.988768
2025-01-15T10:00:10.240Z,-0.038466,-0.009293,-0.930386
2025-01-15T10:00:10.280Z,0.063527,-0.0284,-1.011118
2025-01-15T10:00:10.320Z,0.009596,0.076604,-1.008224
2025-01-15T10:00:10.360Z,-0.021159,0.090271,-0.88245
2025-01-15T10:00:10.400Z,-0.005485,0.053024,-0.980769
2025-01-15T10:00:10.440Z,-0.022681,0.022062,-2.73807
2025-01-15T10:00:10.480Z,-0.032716,0.042321,-1.075137
2025-01-15T10:00:10.520Z,0.003094,0.007103,-1.054802
2025-01-15T10:00:10.560Z,0.011066,-0.040208,-1.029221
2025-01-15T10:00:10.600Z,-0.013085,0.046732,-1.015293
2025-01-15T10:00:10.640Z,-0.030547,-0.010675,-1.03905
2025-01-15T10:00:10.680Z,0.012631,0.11763,-0.985227
2025-01-15T10:00:10.720Z,0.059105,-0.010361,-1.061329
2025-01-15T10:00:10.760Z,-0.05263,-0.015562,-0.949247
2025-01-15T10:00:10.800Z,0.035265,-0.02171,-0.947743
2025-01-15T10:00:10.840Z,-0.07396,0.002923,-0.977358
2025-01-15T10:00:10.880Z,0.038789,0.026678,-1.014596
2025-01-15T10:00:10.920Z,0.049595,-0.015268,-2.086427
2025-01-15T10:00:10.960Z,-0.023604,0.020384,-1.055448
2025-01-15T10:00:11.000Z,-1.455102,0.053737,-1.025542
2025-01-15T10:00:11.040Z,0.038887,0.028922,-0.944444
2025-01-15T10:00:11.080Z,-0.008208,0.06788,-0.937044
2025-01-15T10:00:11.120Z,0.02537,1.409563,-0.963299
2025-01-15T10:00:11.160Z,0.012067,0.017213,-1.012831
2025-01-15T10:00:11.200Z,-1.418987,-0.049419,0.459936
2025-01-15T10:00:11.240Z,0.016655,-0.011676,-1.020802
2025-01-15T10:00:11.280Z,1.315496,-0.034052,-0.933388
2025-01-15T10:00:11.320Z,-0.028146,-0.0506,-0.987879
2025-01-15T10:00:11.360Z,-1.3405,-0.013291,-1.055381
2025-01-15T10:00:11.400Z,0.400124,-1.812231,0.236087
2025-01-15T10:00:11.440Z,-0.004497,0.016675,-1.018737
2025-01-15T10:00:11.480Z,-0.020606,0.032093,-1.014238
2025-01-15T10:00:11.520Z,1.375831,-0.015691,-1.015688
2025-01-15T10:00:11.560Z,0.037394,-0.053831,-1.040933
2025-01-15T10:00:11.600Z,0.070162,-0.024721,-0.95548
2025-01-15T10:00:11.640Z,-0.016746,0.053814,-0.981964
2025-01-15T10:00:11.680Z,0.092084,0.058851,-1.031431
2025-01-15T10:00:11.720Z,-0.019137,0.02983,-0.966979
2025-01-15T10:00:11.760Z,0.022902,-0.094536,-0.992639
2025-01-15T10:00:11.800Z,0.03513,0.009744,-1.058308
2025-01-15T10:00:11.840Z,0.070338,0.009068,-1.079146
2025-01-15T10:00:11.880Z,-0.028,0.04668,-1.042544
2025-01-15T10:00:11.920Z,-0.03554,-0.01079,-0.93271
2025-01-15T10:00:11.960Z,-0.005222,-0.000429,-1.015006
2025-01-15T10:00:12.000Z,-0.045554,-0.000122,-0.986947
2025-01-15T10:00:12.040Z,-0.060943,0.078898,-1.067274
2025-01-15T10:00:12.080Z,0.060702,0.050062,-1.026878
2025-01-15T10:00:12.120Z,-0.004149,0.021976,-1.078578
2025-01-15T10:00:12.160Z,-0.079056,0.019036,-0.945137
2025-01-15T10:00:12.200Z,0.022708,-0.021578,-1.049704
2025-01-15T10:00:12.240Z,0.041716,0.081353,-0.957823
2025-01-15T10:00:12.280Z,0.084724,0.09689,-1.090948
2025-01-15T10:00:12.320Z,-0.034456,-0.061458,-0.990562
2025-01-15T10:00:12.360Z,-0.006969,0.077535,-0.964409
2025-01-15T10:00:12.400Z,-1.946469,0.005637,-1.006079
2025-01-15T10:00:12.440Z,-0.021431,-0.043225,-1.023623
2025-01-15T10:00:12.480Z,0.038351,-0.020754,-0.990018
2025-01-15T10:00:12.520Z,0.01072,-0.027789,-0.991166
2025-01-15T10:00:12.560Z,0.060254,-0.104546,-0.973232
2025-01-15T10:00:12.600Z,-1.740532,0.06416,-0.978791
2025-01-15T10:00:12.640Z,-0.014101,-0.038953,-0.929263
2025-01-15T10:00:12.680Z,0.027924,0.00414,-0.939817
2025-01-15T10:00:12.720Z,0.019926,0.0213,-1.019969
2025-01-15T10:00:12.760Z,0.052476,-0.015035,-1.044416
2025-01-15T10:00:12.800Z,-0.007457,0.034528,-0.924647
2025-01-15T10:00:12.840Z,-0.02592,0.012161,-1.013375
2025-01-15T10:00:12.880Z,0.040392,0.021352,-1.030775
2025-01-15T10:00:12.920Z,0.059637,-0.02929,-1.050947
2025-01-15T10:00:12.960Z,-0.079933,-0.001347,-0.928968
2025-01-15T10:00:13.000Z,-0.022735,0.070118,-1.077172
2025-01-15T10:00:13.040Z,-0.020709,-0.038747,-0.942163
2025-01-15T10:00:13.080Z,-0.059761,-0.047182,-0.919562
2025-01-15T10:00:13.120Z,-0.024562,-0.064246,-1.006067
2025-01-15T10:00:13.160Z,0.020422,0.017229,-1.014005
2025-01-15T10:00:13.200Z,-0.062543,-0.019814,-0.995306
2025-01-15T10:00:13.240Z,-0.026931,0.034933,-2.975036
2025-01-15T10:00:13.280Z,-0.029146,-0.02671,-0.998321
2025-01-15T10:00:13.320Z,-0.013184,0.038948,-0.971265
2025-01-15T10:00:13.360Z,0.043242,0.035581,-1.040352
2025-01-15T10:00:13.400Z,-0.038873,-0.044014,-0.948352
2025-01-15T10:00:13.440Z,0.004168,-0.050865,-0.985368
2025-01-15T10:00:13.480Z,-0.094804,0.052926,-2.495739
2025-01-15T10:00:13.520Z,-0.021329,-0.015175,-0.974944
2025-01-15T10:00:13.560Z,-0.040406,0.011953,-1.005586
2025-01-15T10:00:13.600Z,-0.009785,-0.001512,-1.095798
2025-01-15T10:00:13.640Z,-0.028508,-0.111161,-1.023512
2025-01-15T10:00:13.680Z,0.006426,-0.003289,-0.925849
2025-01-15T10:00:13.720Z,0.0031,0.038606,-1.005153
2025-01-15T10:00:13.760Z,0.001331,-0.025414,-0.999916
2025-01-15T10:00:13.800Z,-0.008734,1.200694,-1.062352
2025-01-15T10:00:13.840Z,0.025286,0.004735,-0.971887
2025-01-15T10:00:13.880Z,-0.033148,-0.018428,-1.020808
2025-01-15T10:00:13.920Z,-0.024148,-0.016472,-0.899596
2025-01-15T10:00:13.960Z,0.051371,-0.022122,-0.978476
2025-01-15T10:00:14.000Z,-0.028099,0.043354,-0.996786
2025-01-15T10:00:14.040Z,0.018931,-0.009968,-1.027137
2025-01-15T10:00:14.080Z,-0.074597,-0.02259,-1.028132
2025-01-15T10:00:14.120Z,-1.775845,0.02953,-0.910696
2025-01-15T10:00:14.160Z,-0.052281,0.012563,-0.969534
2025-01-15T10:00:14.200Z,-0.101333,-0.001209,-0.925186
2025-01-15T10:00:14.240Z,0.053154,0.031587,-0.975131
2025-01-15T10:00:14.280Z,-0.020462,-0.030592,-1.065852
2025-01-15T10:00:14.320Z,0.024408,0.087085,-0.963699
2025-01-15T10:00:14.360Z,-0.017498,-0.007679,-1.029127
2025-01-15T10:00:14.400Z,0.048938,0.014305,-0.950552
2025-01-15T10:00:14.440Z,-0.035794,-0.073563,-1.056407
2025-01-15T10:00:14.480Z,-1.346058,0.040615,-1.066912
2025-01-15T10:00:14.520Z,0.045194,0.006017,-0.990164
2025-01-15T10:00:14.560Z,0.013739,0.025605,-0.958824
2025-01-15T10:00:14.600Z,0.035628,-0.028749,-0.897649
2025-01-15T10:00:14.640Z,0.048809,-0.034101,-0.984986
2025-01-15T10:00:14.680Z,-0.000628,-0.03119,-1.030702
2025-01-15T10:00:14.720Z,0.02265,0.001676,-0.964319
2025-01-15T10:00:14.760Z,-0.061911,-0.053767,-1.023715
2025-01-15T10:00:14.800Z,-0.008085,-0.050665,-0.938211
2025-01-15T10:00:14.840Z,-1.847955,0.007132,-0.988434
2025-01-15T10:00:14.880Z,-1.321701,-0.008106,-0.921078
2025-01-15T10:00:14.920Z,-0.041059,0.061827,-0.934185
2025-01-15T10:00:14.960Z,-0.02542,-0.031167,-1.085029
2025-01-15T10:00:15.000Z,0.045485,-1.239109,-1.097046
2025-01-15T10:00:15.040Z,0.025087,-0.062092,-0.936676
2025-01-15T10:00:15.080Z,0.977222,-0.847236,-1.282473
2025-01-15T10:00:15.120Z,0.004993,0.09846,-1.041065
2025-01-15T10:00:15.160Z,0.041342,0.006431,-1.075671
2025-01-15T10:00:15.200Z,-0.013552,0.056064,-1.001241
2025-01-15T10:00:15.240Z,-0.031538,-0.0262,-1.031035
2025-01-15T10:00:15.280Z,0.092303,0.037705,-0.981594
2025-01-15T10:00:15.320Z,0.100576,0.003955,-1.034488
2025-01-15T10:00:15.360Z,-0.428205,1.211193,-1.262722
2025-01-15T10:00:15.400Z,-0.038751,-0.032884,-1.090826
2025-01-15T10:00:15.440Z,-0.031236,0.042573,-0.957441
2025-01-15T10:00:15.480Z,0.020026,0.108755,-1.052384
2025-01-15T10:00:15.520Z,-0.082231,0.01754,-1.001541
2025-01-15T10:00:15.560Z,0.006769,0.035741,-0.999351
2025-01-15T10:00:15.600Z,0.019162,0.009464,-1.032082
2025-01-15T10:00:15.640Z,-0.038029,0.019945,-0.960393
2025-01-15T10:00:15.680Z,-0.075933,-6.5e-05,-0.915682
2025-01-15T10:00:15.720Z,0.047395,-0.022752,-0.950543
2025-01-15T10:00:15.760Z,-0.022009,-0.042118,-1.006114
2025-01-15T10:00:15.800Z,0.013869,-0.03279,-1.010323
2025-01-15T10:00:15.840Z,-0.027813,-0.028875,-1.008951
2025-01-15T10:00:15.880Z,0.00042,-0.00062,-0.978593
2025-01-15T10:00:15.920Z,-0.002726,0.049001,-0.99221
2025-01-15T10:00:15.960Z,-0.015617,0.064127,-1.028831
2025-01-15T10:00:16.000Z,0.062349,-0.029689,-1.114852
2025-01-15T10:00:16.040Z,-0.048699,-0.023345,-0.980546
2025-01-15T10:00:16.080Z,-0.008062,0.022161,-0.980211
2025-01-15T10:00:16.120Z,0.076216,-0.029403,-0.956802
2025-01-15T10:00:16.160Z,0.000119,-0.08252,-0.971362
2025-01-15T10:00:16.200Z,-0.008998,-0.052635,-0.986994
2025-01-15T10:00:16.240Z,0.004881,-0.040869,-0.955344
2025-01-15T10:00:16.280Z,0.029283,-0.009988,-1.009559
2025-01-15T10:00:16.320Z,0.021393,-0.041021,-0.997959
2025-01-15T10:00:16.360Z,-0.023583,-0.026209,-1.059619
2025-01-15T10:00:16.400Z,-0.019537,-0.027976,-0.994985
2025-01-15T10:00:16.440Z,-0.085682,-0.060932,-1.037384
2025-01-15T10:00:16.480Z,0.021349,0.005378,-1.069139
2025-01-15T10:00:16.520Z,0.014234,0.017003,-1.066518
2025-01-15T10:00:16.560Z,0.034086,0.013152,-1.011217
2025-01-15T10:00:16.600Z,0.056796,1.703698,-0.958419
2025-01-15T10:00:16.640Z,0.030481,-0.004421,-0.948319
2025-01-15T10:00:16.680Z,-0.054695,0.001465,-1.033097
2025-01-15T10:00:16.720Z,-0.006988,0.014348,-0.917873
2025-01-15T10:00:16.760Z,0.056569,-0.029307,-1.008049
2025-01-15T10:00:16.800Z,-0.022588,-0.028508,-1.036115
2025-01-15T10:00:16.840Z,-0.017638,-0.032097,-1.088813
2025-01-15T10:00:16.880Z,1.416011,0.017679,-1.028451
2025-01-15T10:00:16.920Z,0.069898,0.008948,-1.053134
2025-01-15T10:00:16.960Z,0.056175,0.028959,-0.935038
2025-01-15T10:00:17.000Z,-0.072182,0.041811,-1.035935
2025-01-15T10:00:17.040Z,-0.002535,0.018755,-1.077733
2025-01-15T10:00:17.080Z,0.125056,-1.511358,0.992096
2025-01-15T10:00:17.120Z,0.029752,0.002434,-1.052797
2025-01-15T10:00:17.160Z,0.020456,-0.027548,-1.034166
2025-01-15T10:00:17.200Z,-0.046733,0.037193,-0.99053
2025-01-15T10:00:17.240Z,-0.057841,0.023929,-1.034254
2025-01-15T10:00:17.280Z,0.01658,0.00109,-0.979263
2025-01-15T10:00:17.320Z,-0.080488,0.033219,-0.957448
2025-01-15T10:00:17.360Z,0.052518,0.014085,-1.046797
2025-01-15T10:00:17.400Z,0.077735,0.02553,-1.01334
2025-01-15T10:00:17.440Z,0.11399,-0.046354,-1.064962
2025-01-15T10:00:17.480Z,-0.008443,0.058671,-1.026542
2025-01-15T10:00:17.520Z,0.02292,0.042267,-1.033428
2025-01-15T10:00:17.560Z,-0.024106,0.034525,-0.989647
2025-01-15T10:00:17.600Z,0.035745,0.044968,-1.056417
2025-01-15T10:00:17.640Z,-0.003228,0.069226,-0.95738
2025-01-15T10:00:17.680Z,-0.065092,-0.009457,-1.059226
2025-01-15T10:00:17.720Z,-0.010878,0.001881,-1.009613
2025-01-15T10:00:17.760Z,0.026107,-0.002778,-1.005488
2025-01-15T10:00:17.800Z,-0.002639,0.108922,-1.025074
2025-01-15T10:00:17.840Z,-0.01654,-0.058016,-0.992894
2025-01-15T10:00:17.880Z,-0.014323,0.036029,-0.952281
2025-01-15T10:00:17.920Z,0.079965,0.0142,-0.975973
2025-01-15T10:00:17.960Z,-0.004068,0.022909,-0.998371
2025-01-15T10:00:18.000Z,0.031055,-0.051501,-0.883878
2025-01-15T10:00:18.040Z,0.036185,0.032441,-1.034759
2025-01-15T10:00:18.080Z,-0.015998,0.029104,-1.010378
2025-01-15T10:00:18.120Z,-0.012145,-0.031336,-0.997936
2025-01-15T10:00:18.160Z,-0.031836,-0.003531,-1.044614
2025-01-15T10:00:18.200Z,0.035714,-0.023522,-0.930644
2025-01-15T10:00:18.240Z,0.040443,-0.018499,-1.050766
2025-01-15T10:00:18.280Z,-0.069961,-0.004769,0.075251
2025-01-15T10:00:18.320Z,0.038315,-0.084472,-0.970052
2025-01-15T10:00:18.360Z,0.025778,0.02846,-1.109737
2025-01-15T10:00:18.400Z,0.030398,-0.045881,-1.038007
2025-01-15T10:00:18.440Z,1.0307,-0.010511,-0.985427
2025-01-15T10:00:18.480Z,0.001243,-0.01865,-0.984216
2025-01-15T10:00:18.520Z,0.014506,-0.046437,-0.940647
2025-01-15T10:00:18.560Z,0.017456,-1.152264,-1.000404
2025-01-15T10:00:18.600Z,0.022327,-0.023825,0.330761
2025-01-15T10:00:18.640Z,0.026419,-0.011956,-1.00315
2025-01-15T10:00:18.680Z,-0.046419,-0.008633,-0.968366
2025-01-15T10:00:18.720Z,-0.043962,0.012818,-0.995435
2025-01-15T10:00:18.760Z,0.013882,-0.04903,-1.078062
2025-01-15T10:00:18.800Z,-0.010485,0.010489,-0.934096
2025-01-15T10:00:18.840Z,-0.0791,0.012625,-1.003158
2025-01-15T10:00:18.880Z,0.014006,0.025795,-0.917081
2025-01-15T10:00:18.920Z,-0.05607,-0.008745,-0.939125
2025-01-15T10:00:18.960Z,0.011012,-0.000246,-1.027071
2025-01-15T10:00:19.000Z,1.65456,0.007421,-1.060382
2025-01-15T10:00:19.040Z,0.006653,0.034165,-1.027141
2025-01-15T10:00:19.080Z,-0.050446,-0.039097,-1.011347
2025-01-15T10:00:19.120Z,-0.035212,-0.011318,-1.025082
2025-01-15T10:00:19.160Z,0.007556,-0.054435,-0.952817
2025-01-15T10:00:19.200Z,-0.003691,0.039334,-0.947204
2025-01-15T10:00:19.240Z,-0.034332,-0.000919,-0.962398
2025-01-15T10:00:19.280Z,0.015835,-0.009889,-1.063134
2025-01-15T10:00:19.320Z,-0.054696,-0.04788,-0.948719
2025-01-15T10:00:19.360Z,-0.007595,0.025493,-0.978395
2025-01-15T10:00:19.400Z,-0.042753,-0.051233,-1.011279
2025-01-15T10:00:19.440Z,0.214561,-1.884903,-0.001419
2025-01-15T10:00:19.480Z,-0.014503,0.011715,-1.020191
2025-01-15T10:00:19.520Z,-0.02771,-0.077188,-0.980938
2025-01-15T10:00:19.560Z,-0.021551,-0.049177,-1.071656
2025-01-15T10:00:19.600Z,0.021718,0.000993,-0.97344
2025-01-15T10:00:19.640Z,-0.046449,0.023944,-1.005125
2025-01-15T10:00:19.680Z,0.01554,0.029485,-1.067195
2025-01-15T10:00:19.720Z,-0.026573,0.037071,-1.074648
2025-01-15T10:00:19.760Z,1.964119,0.018987,-0.964821
2025-01-15T10:00:19.800Z,0.001872,-0.04668,0.980143
2025-01-15T10:00:19.840Z,0.000277,1.156807,-1.118517
2025-01-15T10:00:19.880Z,-0.067774,0.05695,-1.006895
2025-01-15T10:00:19.920Z,-0.024589,0.053738,0.086867
2025-01-15T10:00:19.960Z,-0.077032,-0.000319,-0.886832
2025-01-15T10:00:20.000Z,-0.019954,0.001162,-0.965523
2025-01-15T10:00:20.040Z,-0.049765,-0.035546,-0.991541
2025-01-15T10:00:20.080Z,0.014384,-0.038445,-1.031562
2025-01-15T10:00:20.120Z,0.033621,-0.062079,-1.066461
2025-01-15T10:00:20.160Z,0.011699,1.483394,-0.95445
2025-01-15T10:00:20.200Z,-0.009674,0.058954,-1.02227
2025-01-15T10:00:20.240Z,-0.009433,-0.010698,-0.950419
2025-01-15T10:00:20.280Z,0.013609,0.023693,-1.056244
2025-01-15T10:00:20.320Z,-0.040219,-0.020328,-0.958945
2025-01-15T10:00:20.360Z,0.03608,-0.030227,-0.942841
2025-01-15T10:00:20.400Z,0.01337,-0.049574,-1.015226
2025-01-15T10:00:20.440Z,0.021662,0.01365,-1.02719
2025-01-15T10:00:20.480Z,0.005683,-0.009549,-0.925961
2025-01-15T10:00:20.520Z,0.006247,0.004766,-1.013932
2025-01-15T10:00:20.560Z,-0.03286,-0.020498,-0.950028
2025-01-15T10:00:20.600Z,1.805717,0.024013,-0.994269
2025-01-15T10:00:20.640Z,-0.04112,0.028429,-1.044966
2025-01-15T10:00:20.680Z,0.106257,-0.029988,-0.921082
2025-01-15T10:00:20.720Z,0.027964,0.053654,-0.989312
2025-01-15T10:00:20.760Z,-0.105646,0.01783,-0.968085
2025-01-15T10:00:20.800Z,0.007107,0.045262,-0.975679
2025-01-15T10:00:20.840Z,-0.014507,-0.067385,-1.005746
2025-01-15T10:00:20.880Z,0.015795,1.01832,-0.931109
2025-01-15T10:00:20.920Z,0.059535,0.026825,-0.953089
2025-01-15T10:00:20.960Z,0.025527,-0.041229,-1.048791
2025-01-15T10:00:21.000Z,-0.032765,0.035437,-0.936335
2025-01-15T10:00:21.040Z,-0.013185,-0.008922,-0.980302
2025-01-15T10:00:21.080Z,0.012101,-0.037746,-1.019836
2025-01-15T10:00:21.120Z,0.061323,0.002222,-0.909276
2025-01-15T10:00:21.160Z,0.031073,0.006316,-0.985082
2025-01-15T10:00:21.200Z,-0.001805,0.011699,-0.932375
2025-01-15T10:00:21.240Z,0.010402,-0.00344,-0.918906
2025-01-15T10:00:21.280Z,0.001967,-0.019717,-1.024608
2025-01-15T10:00:21.320Z,0.014785,-0.05112,-1.011487
2025-01-15T10:00:21.360Z,0.027843,0.004627,-1.036226
2025-01-15T10:00:21.400Z,0.027143,0.082137,-0.976136
2025-01-15T10:00:21.440Z,-0.059775,-0.00064,-0.924852
2025-01-15T10:00:21.480Z,-0.02445,0.070098,-0.983192
2025-01-15T10:00:21.520Z,-0.015936,0.033567,-1.007463
2025-01-15T10:00:21.560Z,-0.022969,0.001682,-0.926968
2025-01-15T10:00:21.600Z,-0.053173,-0.045971,-0.8753
2025-01-15T10:00:21.640Z,0.002944,-0.022897,-1.003614
2025-01-15T10:00:21.680Z,0.017358,0.025245,-0.968093
2025-01-15T10:00:21.720Z,0.051283,-0.026455,-1.011123
2025-01-15T10:00:21.760Z,0.033947,0.014685,-0.95368
2025-01-15T10:00:21.800Z,0.015075,-0.051899,-1.060783
2025-01-15T10:00:21.840Z,-0.012206,-0.009389,-1.075998
2025-01-15T10:00:21.880Z,0.000921,-0.001746,-1.031863
2025-01-15T10:00:21.920Z,-0.00072,0.003601,-1.016608
2025-01-15T10:00:21.960Z,0.037919,-0.035734,-1.03727
2025-01-15T10:00:22.000Z,-0.00655,0.003992,-0.946526
2025-01-15T10:00:22.040Z,-0.004795,-0.054622,-1.011594
2025-01-15T10:00:22.080Z,0.028624,0.009532,-1.061837
2025-01-15T10:00:22.120Z,0.02356,0.022999,-1.007713
2025-01-15T10:00:22.160Z,0.025244,0.000813,-0.935514
2025-01-15T10:00:22.200Z,-0.024977,0.002122,-1.011042
2025-01-15T10:00:22.240Z,0.077884,-0.055017,-0.942947
2025-01-15T10:00:22.280Z,0.057273,-0.001227,-0.973162
2025-01-15T10:00:22.320Z,0.034297,0.010398,-1.047649
2025-01-15T10:00:22.360Z,0.016776,0.102922,-0.991398
2025-01-15T10:00:22.400Z,0.018998,-0.020725,-0.877544
2025-01-15T10:00:22.440Z,-0.042672,-0.027134,-1.024269
2025-01-15T10:00:22.480Z,-0.031252,0.003645,-1.026601
2025-01-15T10:00:22.520Z,0.001638,0.04296,-1.064694
2025-01-15T10:00:22.560Z,-0.017522,0.049407,-0.985308
2025-01-15T10:00:22.600Z,-0.009927,0.052825,-1.004436
2025-01-15T10:00:22.640Z,-0.015431,-0.037122,-0.966529
2025-01-15T10:00:22.680Z,-0.002481,-0.037565,-1.022582
2025-01-15T10:00:22.720Z,-0.044645,-0.053157,-0.994095
2025-01-15T10:00:22.760Z,-0.033298,-0.045582,-1.020891
2025-01-15T10:00:22.800Z,-0.052026,-0.068031,-1.011685
2025-01-15T10:00:22.840Z,-0.002011,-0.004384,-0.983958
2025-01-15T10:00:22.880Z,0.009405,0.066228,-0.997803
2025-01-15T10:00:22.920Z,-0.040674,-0.006845,-0.995894
2025-01-15T10:00:22.960Z,0.019119,0.004557,-0.960254
2025-01-15T10:00:23.000Z,0.073373,0.010213,-1.098933
2025-01-15T10:00:23.040Z,0.002426,-0.033586,-1.003216
2025-01-15T10:00:23.080Z,0.008126,0.055112,-0.993742
2025-01-15T10:00:23.120Z,0.02839,-0.044741,-1.020001
2025-01-15T10:00:23.160Z,-0.020989,-0.037984,-0.975263
2025-01-15T10:00:23.200Z,0.022533,-0.10575,-0.984566
2025-01-15T10:00:23.240Z,-0.003267,0.001957,-0.977452
2025-01-15T10:00:23.280Z,0.024603,0.043918,-0.961755
2025-01-15T10:00:23.320Z,0.012283,0.003471,-0.986256
2025-01-15T10:00:23.360Z,0.004273,-0.037254,-0.984145
2025-01-15T10:00:23.400Z,0.102987,0.038381,-1.069158
2025-01-15T10:00:23.440Z,0.034988,-0.055215,-0.955146
2025-01-15T10:00:23.480Z,0.099334,-0.025805,-1.050122
2025-01-15T10:00:23.520Z,0.03428,0.053404,-0.99289
2025-01-15T10:00:23.560Z,-0.01006,-0.045168,-0.98524
2025-01-15T10:00:23.600Z,0.003714,0.091326,-1.011509
2025-01-15T10:00:23.640Z,0.007451,-0.006825,-0.979478
2025-01-15T10:00:23.680Z,-0.000143,1.624282,-1.047426
2025-01-15T10:00:23.720Z,0.021877,0.015485,-0.998887
2025-01-15T10:00:23.760Z,-0.000626,0.001135,-0.92164
2025-01-15T10:00:23.800Z,-0.032501,-0.026543,-0.956647
2025-01-15T10:00:23.840Z,-0.034564,-1.748562,-1.062084
2025-01-15T10:00:23.880Z,-0.071328,0.037324,-0.915312
2025-01-15T10:00:23.920Z,-0.021701,-0.03939,-1.030627
2025-01-15T10:00:23.960Z,-0.034715,0.013786,-0.988091
2025-01-15T10:00:24.000Z,-0.011116,-0.030698,-1.015033
2025-01-15T10:00:24.040Z,0.036571,0.055872,-0.977452
2025-01-15T10:00:24.080Z,-0.001582,-0.009708,-0.926661
2025-01-15T10:00:24.120Z,0.063623,-0.009061,-1.038784
2025-01-15T10:00:24.160Z,-1.769318,-0.041488,-1.01518
2025-01-15T10:00:24.200Z,-2.3e-05,0.026639,-0.971791
2025-01-15T10:00:24.240Z,0.021046,0.065033,-1.044331
2025-01-15T10:00:24.280Z,-0.010506,-0.052323,-0.959472
2025-01-15T10:00:24.320Z,-0.03022,-0.003411,-0.915681
2025-01-15T10:00:24.360Z,0.048698,-0.005598,-1.027158
2025-01-15T10:00:24.400Z,0.024156,-0.005295,-1.031686
2025-01-15T10:00:24.440Z,0.052748,0.099507,-1.027452
2025-01-15T10:00:24.480Z,-1.429439,0.041182,-1.01058
2025-01-15T10:00:24.520Z,0.020254,0.011748,-0.944529
2025-01-15T10:00:24.560Z,0.035193,0.044308,-1.003808
2025-01-15T10:00:24.600Z,0.009296,-0.029741,-0.995024
2025-01-15T10:00:24.640Z,-0.020073,-0.024433,-1.031785
2025-01-15T10:00:24.680Z,-0.014623,0.014954,-1.026552
2025-01-15T10:00:24.720Z,0.002675,0.016053,-1.06632
2025-01-15T10:00:24.760Z,-0.045408,-0.048578,-1.025297
2025-01-15T10:00:24.800Z,-0.065045,-0.057452,-0.999029
2025-01-15T10:00:24.840Z,0.015705,-0.057045,-1.048667
2025-01-15T10:00:24.880Z,-0.029155,0.060122,-0.980359
2025-01-15T10:00:24.920Z,-0.076486,0.033509,-0.990494
2025-01-15T10:00:24.960Z,-0.049614,0.074554,-1.108041
2025-01-15T10:00:25.000Z,0.029095,-0.046022,-0.994394
2025-01-15T10:00:25.040Z,-0.033592,-0.027161,-1.028508
2025-01-15T10:00:25.080Z,0.029068,0.057658,-0.962472
2025-01-15T10:00:25.120Z,0.016635,0.009535,-0.94409
2025-01-15T10:00:25.160Z,-0.008099,0.034948,-1.007345
2025-01-15T10:00:25.200Z,0.00232,-0.035162,0.637608
2025-01-15T10:00:25.240Z,-0.031234,0.03082,-1.045298
2025-01-15T10:00:25.280Z,-0.030534,-0.040534,-1.116385
2025-01-15T10:00:25.320Z,-0.019919,0.042725,-1.032788
2025-01-15T10:00:25.360Z,-0.016333,0.045016,-1.024679
2025-01-15T10:00:25.400Z,0.092579,-0.005614,-0.954052
2025-01-15T10:00:25.440Z,0.003505,-0.016219,-1.057409
2025-01-15T10:00:25.480Z,0.009938,0.003838,-1.05071
2025-01-15T10:00:25.520Z,0.019668,0.002869,-1.063243
2025-01-15T10:00:25.560Z,1.924491,0.086129,-1.028323
2025-01-15T10:00:25.600Z,-0.031925,0.065804,-0.980375
2025-01-15T10:00:25.640Z,-0.004397,-0.000819,0.560765
2025-01-15T10:00:25.680Z,-0.008279,0.019935,-0.962101
2025-01-15T10:00:25.720Z,0.028536,0.039712,-0.945304
2025-01-15T10:00:25.760Z,0.041907,-0.013355,-0.976051
2025-01-15T10:00:25.800Z,0.027508,-0.015509,-1.01964
2025-01-15T10:00:25.840Z,-0.032342,-0.01308,-0.97029
2025-01-15T10:00:25.880Z,-0.015502,-0.054274,-0.93324
2025-01-15T10:00:25.920Z,0.011818,0.053488,-0.961493
2025-01-15T10:00:25.960Z,-0.024283,-0.006804,-0.968423
2025-01-15T10:00:26.000Z,-0.019165,-0.070147,-1.002814
2025-01-15T10:00:26.040Z,-0.009364,0.061086,-0.903698
2025-01-15T10:00:26.080Z,0.001674,0.025306,-1.078167
2025-01-15T10:00:26.120Z,0.051565,-0.055267,-1.023429
2025-01-15T10:00:26.160Z,0.008494,-0.049362,-0.98072
2025-01-15T10:00:26.200Z,-0.065628,2.00467,-0.94072
2025-01-15T10:00:26.240Z,0.017965,0.02383,-0.944987
2025-01-15T10:00:26.280Z,-0.045738,-0.034297,-1.017311
2025-01-15T10:00:26.320Z,0.689724,-2.320941,-2.473472
2025-01-15T10:00:26.360Z,-0.040535,-0.001718,-1.093334
2025-01-15T10:00:26.400Z,-0.014298,-0.015239,-0.990741
2025-01-15T10:00:26.440Z,-0.029618,-0.006197,-0.993407
2025-01-15T10:00:26.480Z,0.796978,0.601636,-2.982868
2025-01-15T10:00:26.520Z,-0.033835,-0.041593,-1.10691
2025-01-15T10:00:26.560Z,0.03451,0.003603,-1.06184
2025-01-15T10:00:26.600Z,-0.027186,-0.075986,-0.979566
2025-01-15T10:00:26.640Z,0.054522,0.000401,-0.977499
2025-01-15T10:00:26.680Z,0.038793,0.008942,-0.946444
2025-01-15T10:00:26.720Z,0.031622,0.005346,-0.99763
2025-01-15T10:00:26.760Z,-0.041856,0.012916,-0.876408
2025-01-15T10:00:26.800Z,-0.007472,0.032855,0.698203
2025-01-15T10:00:26.840Z,0.01778,0.011473,-1.073408
2025-01-15T10:00:26.880Z,-0.008022,0.007457,-0.912795
2025-01-15T10:00:26.920Z,0.020336,0.048473,-1.057375
2025-01-15T10:00:26.960Z,0.004601,-0.001128,-1.012531
2025-01-15T10:00:27.000Z,-0.05969,0.050309,-1.019268
2025-01-15T10:00:27.040Z,-0.011816,-0.062742,-1.057258
2025-01-15T10:00:27.080Z,0.057787,-0.059093,-1.044907
2025-01-15T10:00:27.120Z,-0.088619,-0.034401,-1.010502
2025-01-15T10:00:27.160Z,0.007156,0.043473,-0.983423
2025-01-15T10:00:27.200Z,-0.027436,0.076039,-1.006359
2025-01-15T10:00:27.240Z,-0.003925,-0.058717,-1.081071
2025-01-15T10:00:27.280Z,0.072614,0.017418,-1.036991
2025-01-15T10:00:27.320Z,0.024209,0.013041,-1.055764
2025-01-15T10:00:27.360Z,0.010262,0.018116,-1.011911
2025-01-15T10:00:27.400Z,-1.388833,0.00777,-0.949816
2025-01-15T10:00:27.440Z,-0.072181,-0.00375,-1.040486
2025-01-15T10:00:27.480Z,0.00484,-0.081077,-1.031543
2025-01-15T10:00:27.520Z,-0.020423,0.03557,-1.001227
2025-01-15T10:00:27.560Z,-0.003048,0.081028,-1.033008
2025-01-15T10:00:27.600Z,1.144245,0.006986,-1.027916
2025-01-15T10:00:27.640Z,0.039086,0.004155,-1.027405
2025-01-15T10:00:27.680Z,-0.055435,-0.009206,-1.039897
2025-01-15T10:00:27.720Z,0.041416,-0.031395,-1.049387
2025-01-15T10:00:27.760Z,-0.03081,0.029358,-0.990777
2025-01-15T10:00:27.800Z,0.77258,-1.294273,-1.713157
2025-01-15T10:00:27.840Z,0.003912,0.004512,-1.004622
2025-01-15T10:00:27.880Z,-0.041397,-0.039122,-1.004351
2025-01-15T10:00:27.920Z,-0.029202,0.020287,-2.315226
2025-01-15T10:00:27.960Z,1.296468,-0.025136,-1.013566
2025-01-15T10:00:28.000Z,-0.010491,-0.025196,-1.017932
2025-01-15T10:00:28.040Z,-0.006691,-0.028769,-1.001067
2025-01-15T10:00:28.080Z,-0.009665,0.030835,-1.01914
2025-01-15T10:00:28.120Z,0.065017,0.022218,-0.925366
2025-01-15T10:00:28.160Z,-0.017986,-0.020608,-0.97084
2025-01-15T10:00:28.200Z,-0.005072,0.005276,-1.051193
2025-01-15T10:00:28.240Z,0.09322,-1.797168,-0.918819
2025-01-15T10:00:28.280Z,-0.013483,-0.000173,-1.018284
2025-01-15T10:00:28.320Z,-0.062591,-0.052203,-1.011133
2025-01-15T10:00:28.360Z,-0.012169,0.052297,-1.003045
2025-01-15T10:00:28.400Z,0.02597,-0.026448,-0.938972
2025-01-15T10:00:28.440Z,-1.130199,0.076177,0.768015
2025-01-15T10:00:28.480Z,-0.026837,-0.009154,0.905902
2025-01-15T10:00:28.520Z,0.005297,0.082367,-2.587792
2025-01-15T10:00:28.560Z,0.021875,-0.00366,-1.033072
2025-01-15T10:00:28.600Z,0.023583,0.006537,-0.936197
2025-01-15T10:00:28.640Z,-0.042611,-0.016382,-1.067922
2025-01-15T10:00:28.680Z,-0.037388,0.049612,-0.951286
2025-01-15T10:00:28.720Z,0.073998,0.062621,-0.957817
2025-01-15T10:00:28.760Z,-0.013809,-0.037269,-1.014053
2025-01-15T10:00:28.800Z,0.018412,-0.065421,-1.042221
2025-01-15T10:00:28.840Z,-0.051228,0.068547,-1.082791
2025-01-15T10:00:28.880Z,0.035157,-0.017152,-0.988717
2025-01-15T10:00:28.920Z,0.016378,0.077072,-1.050129
2025-01-15T10:00:28.960Z,0.02413,-0.034431,-1.055486
2025-01-15T10:00:29.000Z,-0.029877,-0.050426,-0.973032
2025-01-15T10:00:29.040Z,0.019199,-0.041599,-1.095398
2025-01-15T10:00:29.080Z,-0.016942,0.034178,-0.981545
2025-01-15T10:00:29.120Z,0.025639,-0.056321,-1.039756
2025-01-15T10:00:29.160Z,0.027035,-0.003169,-1.009904
2025-01-15T10:00:29.200Z,0.023349,0.048761,-0.98722
2025-01-15T10:00:29.240Z,-0.019678,0.059875,-1.000767
2025-01-15T10:00:29.280Z,0.078781,0.006785,-1.017652
2025-01-15T10:00:29.320Z,0.020484,-0.0502,-0.961671
2025-01-15T10:00:29.360Z,-0.053562,0.030569,-0.99363
2025-01-15T10:00:29.400Z,-0.008917,0.046131,-0.981249
2025-01-15T10:00:29.440Z,-0.00331,-0.003822,-0.898643
2025-01-15T10:00:29.480Z,-0.025613,0.062794,-0.989912
2025-01-15T10:00:29.520Z,0.081149,0.04851,-1.06035
2025-01-15T10:00:29.560Z,-0.009989,-0.096208,-0.953922
2025-01-15T10:00:29.600Z,-0.009752,-0.048996,-0.988197
2025-01-15T10:00:29.640Z,-0.034955,-0.043561,-0.95837
2025-01-15T10:00:29.680Z,-0.010955,-0.072695,-1.101652
2025-01-15T10:00:29.720Z,0.064372,-0.053903,-1.095295
2025-01-15T10:00:29.760Z,-0.072235,-0.043591,-0.980045
2025-01-15T10:00:29.800Z,1.642496,-0.012021,-1.025194
2025-01-15T10:00:29.840Z,-0.052503,0.065567,-1.012635
2025-01-15T10:00:29.880Z,-0.041518,0.042919,-1.068777
2025-01-15T10:00:29.920Z,1.297799,-0.06401,-0.932301
2025-01-15T10:00:29.960Z,0.045166,0.046801,-0.939574
2025-01-15T10:00:30.000Z,0.027136,-0.016232,-0.916402
2025-01-15T10:00:30.040Z,1.684422,0.029638,-1.016512
2025-01-15T10:00:30.080Z,-0.026121,-0.015375,-1.016151
2025-01-15T10:00:30.120Z,-0.198171,-1.923242,-2.106173
2025-01-15T10:00:30.160Z,-0.070186,-1.530201,-0.945556
2025-01-15T10:00:30.200Z,0.069292,-0.065222,-1.022162
2025-01-15T10:00:30.240Z,0.013657,0.015267,-0.998555
2025-01-15T10:00:30.280Z,0.072347,0.014797,-0.883258
2025-01-15T10:00:30.320Z,-0.051366,-0.035545,-0.962099
2025-01-15T10:00:30.360Z,-0.028547,0.002018,-0.955189
2025-01-15T10:00:30.400Z,0.059013,-0.032692,-0.90512
2025-01-15T10:00:30.440Z,-0.024202,-0.014181,-1.052754
2025-01-15T10:00:30.480Z,-1.604301,0.006493,-1.07077
2025-01-15T10:00:30.520Z,-0.046022,-0.002271,-1.046153
2025-01-15T10:00:30.560Z,0.008105,-0.05599,-0.988322
2025-01-15T10:00:30.600Z,0.01368,-0.002492,-0.999553
2025-01-15T10:00:30.640Z,-0.019171,0.014409,-0.99835
2025-01-15T10:00:30.680Z,-0.034599,-0.041511,-1.025324
2025-01-15T10:00:30.720Z,0.00549,0.015393,-1.028303
2025-01-15T10:00:30.760Z,-0.008774,-0.043926,-1.061596
2025-01-15T10:00:30.800Z,0.013683,0.009272,-0.95317
2025-01-15T10:00:30.840Z,-0.023188,0.022457,-1.020453
2025-01-15T10:00:30.880Z,-0.003097,0.025195,-0.947476
2025-01-15T10:00:30.920Z,-0.026339,0.018547,-1.096109
2025-01-15T10:00:30.960Z,-0.000734,0.024189,-0.932336
2025-01-15T10:00:31.000Z,-0.028899,-0.05291,-1.077655
2025-01-15T10:00:31.040Z,0.071267,0.022011,-0.991838
2025-01-15T10:00:31.080Z,0.054655,0.00947,-1.105923
2025-01-15T10:00:31.120Z,-0.00487,0.010754,-0.972259
2025-01-15T10:00:31.160Z,1.828288,-0.562361,0.565951
2025-01-15T10:00:31.200Z,0.007305,0.076259,-1.045204
2025-01-15T10:00:31.240Z,0.010364,-0.055661,-0.973729
2025-01-15T10:00:31.280Z,-0.008613,0.054662,-0.991265
2025-01-15T10:00:31.320Z,0.069111,0.03546,-1.060896
2025-01-15T10:00:31.360Z,-0.050462,-0.063727,-0.961393
2025-01-15T10:00:31.400Z,0.03506,0.040403,-1.034297
2025-01-15T10:00:31.440Z,-0.051891,0.014652,-0.918605
2025-01-15T10:00:31.480Z,-0.044649,-0.012138,-0.93349
2025-01-15T10:00:31.520Z,-0.049114,0.024859,-0.987188
2025-01-15T10:00:31.560Z,0.072809,-1.986774,-0.983415
2025-01-15T10:00:31.600Z,-0.040728,0.075572,-1.00038
2025-01-15T10:00:31.640Z,-0.00575,-0.049775,-1.042364
2025-01-15T10:00:31.680Z,0.047922,-0.009786,-1.105879
2025-01-15T10:00:31.720Z,-0.017461,0.03594,-1.030704
2025-01-15T10:00:31.760Z,-0.087112,-0.040939,-1.067568
2025-01-15T10:00:31.800Z,0.002791,-0.032401,-0.971725
2025-01-15T10:00:31.840Z,-0.017926,-0.066793,-1.057881
2025-01-15T10:00:31.880Z,-0.022551,0.036993,-0.905378
2025-01-15T10:00:31.920Z,0.062349,0.013076,-0.9818
2025-01-15T10:00:31.960Z,0.03783,-0.001011,-0.979791
2025-01-15T10:00:32.000Z,-0.020879,-0.037337,-0.932969
2025-01-15T10:00:32.040Z,0.125766,-0.006028,-0.966113
2025-01-15T10:00:32.080Z,-0.003513,0.026092,-1.059266
2025-01-15T10:00:32.120Z,0.003669,-0.073683,-1.05122
2025-01-15T10:00:32.160Z,-0.020163,0.028656,-1.00385
2025-01-15T10:00:32.200Z,0.021728,0.103858,-1.027692
2025-01-15T10:00:32.240Z,0.043017,0.051201,-1.040914
2025-01-15T10:00:32.280Z,0.012323,-0.036685,-1.025756
2025-01-15T10:00:32.320Z,-0.035904,-0.03586,-1.0438
2025-01-15T10:00:32.360Z,0.050982,1.103165,-0.904499
2025-01-15T10:00:32.400Z,0.048759,0.025629,-1.066053
2025-01-15T10:00:32.440Z,0.012252,0.042277,-1.03364
2025-01-15T10:00:32.480Z,-0.033632,-0.032948,-0.954826
2025-01-15T10:00:32.520Z,0.036368,-0.025124,-0.972296
2025-01-15T10:00:32.560Z,0.083286,0.032351,-1.027024
2025-01-15T10:00:32.600Z,-0.036354,-0.007886,-0.957169
2025-01-15T10:00:32.640Z,0.001549,0.046337,-0.972375
2025-01-15T10:00:32.680Z,0.056118,0.063729,-0.976857
2025-01-15T10:00:32.720Z,1.941101,0.060697,-0.983288
2025-01-15T10:00:32.760Z,-0.042101,0.051033,-0.994854
2025-01-15T10:00:32.800Z,-0.058501,-0.051726,-1.029527
2025-01-15T10:00:32.840Z,0.017563,-0.048641,-1.101382
2025-01-15T10:00:32.880Z,0.031462,0.011123,-1.091443
2025-01-15T10:00:32.920Z,-0.059274,-0.022774,-0.996963
2025-01-15T10:00:32.960Z,-0.001953,-0.030461,-0.955525
2025-01-15T10:00:33.000Z,0.009016,0.041766,-2.586001
2025-01-15T10:00:33.040Z,-0.006448,0.009756,-1.07186
2025-01-15T10:00:33.080Z,-0.03016,0.046473,-1.016151
2025-01-15T10:00:33.120Z,0.000267,-0.015888,-0.995156
2025-01-15T10:00:33.160Z,-0.021627,-0.006204,-1.003561
2025-01-15T10:00:33.200Z,0.013354,0.01526,-0.919743
2025-01-15T10:00:33.240Z,0.07258,0.007569,-0.955328
2025-01-15T10:00:33.280Z,-0.026514,0.04114,-0.896854
2025-01-15T10:00:33.320Z,-0.009801,-1.648053,-0.978281
2025-01-15T10:00:33.360Z,0.045003,-0.023306,-1.006311
2025-01-15T10:00:33.400Z,-0.034503,0.009401,-0.92764
2025-01-15T10:00:33.440Z,0.077397,-0.001803,-0.991555
2025-01-15T10:00:33.480Z,0.029195,-0.041208,-0.945009
2025-01-15T10:00:33.520Z,-0.00862,0.045065,-0.975719
2025-01-15T10:00:33.560Z,0.02064,-0.0293,-1.020927
2025-01-15T10:00:33.600Z,0.027381,-0.004277,-1.074475
2025-01-15T10:00:33.640Z,-1.281447,-0.016103,-1.094474
2025-01-15T10:00:33.680Z,-0.02133,0.047084,-1.103656
2025-01-15T10:00:33.720Z,0.032479,0.049412,-1.027859
2025-01-15T10:00:33.760Z,0.008231,0.042611,-1.021424
2025-01-15T10:00:33.800Z,0.081818,0.013383,-0.985346
2025-01-15T10:00:33.840Z,-0.037292,-0.003855,-1.042953
2025-01-15T10:00:33.880Z,-0.024693,0.063601,-1.002265
2025-01-15T10:00:33.920Z,-0.041577,-0.003708,-0.959444
2025-01-15T10:00:33.960Z,-0.054488,0.104253,-0.958921
2025-01-15T10:00:34.000Z,0.054731,-0.003328,-0.972443
2025-01-15T10:00:34.040Z,0.021968,-0.021312,-1.152013
2025-01-15T10:00:34.080Z,-0.040555,0.015109,-0.953456
2025-01-15T10:00:34.120Z,0.006998,-0.019923,-0.973001
2025-01-15T10:00:34.160Z,-1.317931,0.00778,-1.019844
2025-01-15T10:00:34.200Z,-0.069985,0.039565,-1.043068
2025-01-15T10:00:34.240Z,-0.003168,-0.052839,-0.973033
2025-01-15T10:00:34.280Z,-0.012271,0.00864,-0.992942
2025-01-15T10:00:34.320Z,-0.029598,0.001829,-1.01982
2025-01-15T10:00:34.360Z,-0.031239,0.045278,-1.045539
2025-01-15T10:00:34.400Z,0.01339,0.007704,-0.94574
2025-01-15T10:00:34.440Z,0.044243,0.02243,-0.996664
2025-01-15T10:00:34.480Z,0.032822,0.029697,-0.970989
2025-01-15T10:00:34.520Z,0.040764,0.023417,-1.024098
2025-01-15T10:00:34.560Z,0.062542,-0.021832,-0.971886
2025-01-15T10:00:34.600Z,1.143828,0.010317,-0.868518
2025-01-15T10:00:34.640Z,0.026394,0.030032,-1.012359
2025-01-15T10:00:34.680Z,-0.093609,-0.036178,-0.941762
2025-01-15T10:00:34.720Z,0.016004,-0.141507,-1.077026
2025-01-15T10:00:34.760Z,0.04613,0.034878,-0.998718
2025-01-15T10:00:34.800Z,0.032439,0.061388,-1.064333
2025-01-15T10:00:34.840Z,0.094587,-0.002688,-0.976305
2025-01-15T10:00:34.880Z,0.013892,-0.046311,-1.056134
2025-01-15T10:00:34.920Z,-0.015834,0.027973,-1.009553
2025-01-15T10:00:34.960Z,0.019653,0.044648,-0.91926
2025-01-15T10:00:35.000Z,-0.012235,-0.033921,-1.034092
2025-01-15T10:00:35.040Z,0.085188,0.046667,-1.02891
2025-01-15T10:00:35.080Z,-0.036429,0.050196,-0.957998
2025-01-15T10:00:35.120Z,-0.03077,-0.006532,-1.114746
2025-01-15T10:00:35.160Z,0.041974,-0.002448,-0.968767
2025-01-15T10:00:35.200Z,-0.047064,0.002465,-0.952192
2025-01-15T10:00:35.240Z,-0.004968,-0.013075,-2.89127
2025-01-15T10:00:35.280Z,-0.032607,-0.026367,-0.912103
2025-01-15T10:00:35.320Z,-0.010948,0.001374,-1.031751
2025-01-15T10:00:35.360Z,-0.014253,-0.017047,-1.032543
2025-01-15T10:00:35.400Z,-0.020587,0.060021,-0.955938
2025-01-15T10:00:35.440Z,0.076432,-0.021972,-0.928262
2025-01-15T10:00:35.480Z,-0.004768,0.027696,-0.991753
2025-01-15T10:00:35.520Z,-0.027596,-0.053932,-0.929616
2025-01-15T10:00:35.560Z,1.653369,-0.07047,-1.070064
2025-01-15T10:00:35.600Z,0.009905,0.010734,-0.952379
2025-01-15T10:00:35.640Z,-0.035368,0.031996,-1.037134
2025-01-15T10:00:35.680Z,0.068108,-0.00603,-0.998388
2025-01-15T10:00:35.720Z,-0.001988,0.012426,-1.014189
2025-01-15T10:00:35.760Z,0.030616,-0.022385,-0.946919
2025-01-15T10:00:35.800Z,0.053528,0.044755,-1.041235
2025-01-15T10:00:35.840Z,-0.000957,-0.053711,-1.060138
2025-01-15T10:00:35.880Z,0.012361,0.01592,-1.014697
2025-01-15T10:00:35.920Z,-0.029828,0.027242,-1.069789
2025-01-15T10:00:35.960Z,-0.11467,0.024533,-1.008528
2025-01-15T10:00:36.000Z,0.001848,0.011605,-0.924291
2025-01-15T10:00:36.040Z,0.04546,0.046146,-1.035626
2025-01-15T10:00:36.080Z,0.004871,-0.050397,-1.030366
2025-01-15T10:00:36.120Z,-0.016385,-0.038869,-1.056975
2025-01-15T10:00:36.160Z,-0.022045,0.036225,-1.045248
2025-01-15T10:00:36.200Z,-0.054552,0.04378,-1.079214
2025-01-15T10:00:36.240Z,-0.017411,-0.028538,-0.928857
2025-01-15T10:00:36.280Z,-0.047051,-0.016444,-0.993636
2025-01-15T10:00:36.320Z,-0.021581,-0.071752,-1.039377
2025-01-15T10:00:36.360Z,-0.024108,0.033131,0.365639
2025-01-15T10:00:36.400Z,-0.053694,0.0439,-1.00755
2025-01-15T10:00:36.440Z,0.027806,0.094409,-0.944066
2025-01-15T10:00:36.480Z,0.052788,-0.034086,-1.040764
2025-01-15T10:00:36.520Z,0.070073,0.013593,-0.932283
2025-01-15T10:00:36.560Z,-0.052934,0.099785,-2.681177
2025-01-15T10:00:36.600Z,-0.033186,-0.036545,-1.088664
2025-01-15T10:00:36.640Z,-0.046608,0.04292,-0.972431
2025-01-15T10:00:36.680Z,1.892028,0.001468,-1.073575
2025-01-15T10:00:36.720Z,-0.05818,0.021481,-1.004084
2025-01-15T10:00:36.760Z,-0.019269,-0.036307,0.858573
2025-01-15T10:00:36.800Z,0.000724,0.010204,-0.974435
2025-01-15T10:00:36.840Z,0.03935,0.007308,-0.98658
2025-01-15T10:00:36.880Z,0.020688,-0.014711,-1.13563
2025-01-15T10:00:36.920Z,0.014047,0.023994,-1.038606
2025-01-15T10:00:36.960Z,0.02223,-0.065267,-0.998327
2025-01-15T10:00:37.000Z,-0.001522,-0.044646,-1.007708
2025-01-15T10:00:37.040Z,0.02204,-0.00532,-1.051811
2025-01-15T10:00:37.080Z,0.056827,0.016625,-1.058113
2025-01-15T10:00:37.120Z,0.010268,-0.001173,-1.039077
2025-01-15T10:00:37.160Z,-0.015293,-0.009994,-0.963644
2025-01-15T10:00:37.200Z,-0.05098,0.013426,-0.962716
2025-01-15T10:00:37.240Z,-0.069194,-0.06911,-0.960212
2025-01-15T10:00:37.280Z,0.021484,-0.045037,-1.033104
2025-01-15T10:00:37.320Z,0.033144,-1.264549,-1.067396
2025-01-15T10:00:37.360Z,0.071938,0.029377,-1.01437
2025-01-15T10:00:37.400Z,-0.018685,-0.008959,-0.999505
2025-01-15T10:00:37.440Z,0.00505,0.003106,-0.961774
2025-01-15T10:00:37.480Z,0.054581,0.001924,-0.993764
2025-01-15T10:00:37.520Z,0.000477,-0.015485,0.719256
2025-01-15T10:00:37.560Z,0.035905,0.012021,-0.858946
2025-01-15T10:00:37.600Z,0.073607,-0.019435,-1.026773
2025-01-15T10:00:37.640Z,0.037383,-0.050872,-0.998227
2025-01-15T10:00:37.680Z,0.044081,0.004354,-1.105333
2025-01-15T10:00:37.720Z,1.834343,-0.096114,-2.65688
2025-01-15T10:00:37.760Z,0.014527,-0.000291,-0.976804
2025-01-15T10:00:37.800Z,-0.025294,-0.027046,-0.997105
2025-01-15T10:00:37.840Z,0.097342,0.019067,-1.094863
2025-01-15T10:00:37.880Z,0.014644,-0.008591,-0.938491
2025-01-15T10:00:37.920Z,0.029337,-0.004406,-1.028751
2025-01-15T10:00:37.960Z,0.008177,0.094264,-0.981575
2025-01-15T10:00:38.000Z,0.037836,0.020572,-1.062283
2025-01-15T10:00:38.040Z,0.00037,-0.043308,-0.891898
2025-01-15T10:00:38.080Z,-0.026796,0.032538,-1.059881
2025-01-15T10:00:38.120Z,0.001861,-0.061652,-1.050452
2025-01-15T10:00:38.160Z,0.002947,0.005539,-0.969779
2025-01-15T10:00:38.200Z,-0.016219,0.003304,-0.981118
2025-01-15T10:00:38.240Z,0.045955,-0.007536,-0.992841
2025-01-15T10:00:38.280Z,0.022556,0.013965,-1.00402
2025-01-15T10:00:38.320Z,0.013439,-0.031629,-1.006742
2025-01-15T10:00:38.360Z,0.042199,0.066935,-1.046838
2025-01-15T10:00:38.400Z,-0.01605,0.011881,-0.989649
2025-01-15T10:00:38.440Z,0.003357,-0.058321,-0.973542
2025-01-15T10:00:38.480Z,1.0781,0.050421,-1.021858
2025-01-15T10:00:38.520Z,-0.055609,0.002157,-1.067799
2025-01-15T10:00:38.560Z,1.463616,-0.000765,-0.974286
2025-01-15T10:00:38.600Z,-0.038204,-1.503724,-1.013356
2025-01-15T10:00:38.640Z,0.033275,-0.061382,-0.939656
2025-01-15T10:00:38.680Z,-0.01445,-0.021445,-0.895366
2025-01-15T10:00:38.720Z,-0.012523,0.004366,-0.966916
2025-01-15T10:00:38.760Z,-0.03988,-0.037498,-0.990646
2025-01-15T10:00:38.800Z,-0.013809,0.02074,-1.046379
2025-01-15T10:00:38.840Z,0.028492,-0.001142,-1.167807
2025-01-15T10:00:38.880Z,-0.056873,-0.013925,-0.984521
2025-01-15T10:00:38.920Z,-0.010304,0.022889,-0.999711
2025-01-15T10:00:38.960Z,-0.018644,0.016731,-1.017003
2025-01-15T10:00:39.000Z,0.001724,-0.024936,-0.974587
2025-01-15T10:00:39.040Z,0.077649,0.000299,-1.016683
2025-01-15T10:00:39.080Z,7e-06,0.044421,-0.967964
2025-01-15T10:00:39.120Z,0.056708,-0.058853,-1.05842
2025-01-15T10:00:39.160Z,-1.541304,0.004492,-0.978329
2025-01-15T10:00:39.200Z,0.045294,0.084014,-0.920419
2025-01-15T10:00:39.240Z,0.010799,-0.004883,-0.849924
2025-01-15T10:00:39.280Z,0.010694,-0.033791,-0.992634
2025-01-15T10:00:39.320Z,0.024218,0.024036,-0.973191
2025-01-15T10:00:39.360Z,0.017748,-0.038322,-0.996017
2025-01-15T10:00:39.400Z,0.030967,-0.016192,-1.005177
2025-01-15T10:00:39.440Z,0.017309,0.039107,-0.983901
2025-01-15T10:00:39.480Z,-0.046619,-0.003737,-1.0556
2025-01-15T10:00:39.520Z,-1.64728,-0.063026,-0.925442
2025-01-15T10:00:39.560Z,-0.02761,-0.02553,-0.944623
2025-01-15T10:00:39.600Z,0.09713,0.027435,-1.042883
2025-01-15T10:00:39.640Z,-0.041101,0.00914,-0.981753
2025-01-15T10:00:39.680Z,-1.515837,0.021932,-0.972627
2025-01-15T10:00:39.720Z,-0.019855,-0.036672,-1.057207
2025-01-15T10:00:39.760Z,-0.007337,-0.01992,-0.965617
2025-01-15T10:00:39.800Z,-0.004035,0.037199,-0.945331
2025-01-15T10:00:39.840Z,0.017708,0.024366,-1.063231
2025-01-15T10:00:39.880Z,-0.019126,-0.052767,-1.019605
2025-01-15T10:00:39.920Z,0.035342,0.018631,-1.049989
2025-01-15T10:00:39.960Z,0.018082,0.033863,-1.05966
2025-01-15T10:00:40.000Z,-0.016939,-0.021027,-0.945712
2025-01-15T10:00:40.040Z,-0.027163,0.00165,-0.960559
2025-01-15T10:00:40.080Z,-0.051983,0.030137,-1.006605
2025-01-15T10:00:40.120Z,-0.041972,-0.050878,-1.017891
2025-01-15T10:00:40.160Z,0.003517,-0.005305,-0.979589
2025-01-15T10:00:40.200Z,-1.064787,0.023676,-0.994749
2025-01-15T10:00:40.240Z,-0.003119,-0.032612,-1.071795
2025-01-15T10:00:40.280Z,1.080265,0.52983,-1.023825
2025-01-15T10:00:40.320Z,0.033676,0.007338,-1.057791
2025-01-15T10:00:40.360Z,-0.008401,0.055625,-0.906428
2025-01-15T10:00:40.400Z,-0.002,-0.041702,-0.955624
2025-01-15T10:00:40.440Z,0.033727,0.115665,-0.961204
2025-01-15T10:00:40.480Z,-0.014095,0.007978,-1.029192
2025-01-15T10:00:40.520Z,1.2549,-0.027776,-1.131258
2025-01-15T10:00:40.560Z,0.019034,-0.009734,-1.009505
2025-01-15T10:00:40.600Z,0.006275,-0.036111,-0.945369
2025-01-15T10:00:40.640Z,-0.002425,0.004073,-1.039771
2025-01-15T10:00:40.680Z,-0.037583,0.070196,-0.913473
2025-01-15T10:00:40.720Z,-0.009451,-0.024736,-1.049883
2025-01-15T10:00:40.760Z,-0.054229,-0.007993,-1.028913
2025-01-15T10:00:40.800Z,-0.004855,-0.030397,-1.005345
2025-01-15T10:00:40.840Z,0.071753,-0.124761,-1.011039
2025-01-15T10:00:40.880Z,0.065719,-0.008926,-1.017263
2025-01-15T10:00:40.920Z,-0.005837,0.046896,-0.985892
2025-01-15T10:00:40.960Z,0.021657,-0.004297,-1.071804
2025-01-15T10:00:41.000Z,0.052858,0.059729,-1.05295
2025-01-15T10:00:41.040Z,-0.120461,-0.050538,-1.015928
2025-01-15T10:00:41.080Z,0.001732,0.050896,-0.999859
2025-01-15T10:00:41.120Z,-0.000411,0.977976,-1.008422
2025-01-15T10:00:41.160Z,0.029279,0.03876,-1.069527
2025-01-15T10:00:41.200Z,-0.044008,1.255081,-0.994446
2025-01-15T10:00:41.240Z,0.055676,-0.003366,-0.998956
2025-01-15T10:00:41.280Z,-0.027471,0.031997,-1.016813
2025-01-15T10:00:41.320Z,-0.020542,-0.019376,-0.987297
2025-01-15T10:00:41.360Z,-0.000537,-0.048767,-1.02313
2025-01-15T10:00:41.400Z,1.747463,-0.08329,-1.008287
2025-01-15T10:00:41.440Z,1.704253,-0.085408,-0.984786
2025-01-15T10:00:41.480Z,-0.071023,-0.034392,-1.062336
2025-01-15T10:00:41.520Z,-0.006345,0.001835,-0.973767
2025-01-15T10:00:41.560Z,0.009597,0.030948,-0.99821
2025-01-15T10:00:41.600Z,-0.031069,-0.008091,-1.00299
2025-01-15T10:00:41.640Z,1.601008,-0.021166,-1.085369
2025-01-15T10:00:41.680Z,-1.758074,0.014439,-0.897098
2025-01-15T10:00:41.720Z,0.043334,-0.021179,-0.907372
2025-01-15T10:00:41.760Z,-0.085932,0.010852,-1.012299
2025-01-15T10:00:41.800Z,-0.004622,-0.103364,0.067864
2025-01-15T10:00:41.840Z,-0.061855,-0.041881,-0.951156
2025-01-15T10:00:41.880Z,0.030308,-0.009122,-0.99451
2025-01-15T10:00:41.920Z,-0.025748,0.051754,-0.91033
2025-01-15T10:00:41.960Z,-0.018717,0.044844,-0.959595
2025-01-15T10:00:42.000Z,-0.093403,0.006817,-0.973834
2025-01-15T10:00:42.040Z,-0.018848,-0.001076,0.109942
2025-01-15T10:00:42.080Z,-0.015196,0.040548,-0.916243
2025-01-15T10:00:42.120Z,-0.010642,-0.005606,-0.972076
2025-01-15T10:00:42.160Z,0.007701,0.04381,-1.027104
2025-01-15T10:00:42.200Z,0.063445,-0.09105,-1.023473
2025-01-15T10:00:42.240Z,-0.10487,0.078129,-1.039185
2025-01-15T10:00:42.280Z,0.069873,0.07971,-0.973341
2025-01-15T10:00:42.320Z,-0.034027,-0.044982,-1.001905
2025-01-15T10:00:42.360Z,-0.054271,-0.023443,-1.006347
2025-01-15T10:00:42.400Z,-0.022776,0.032238,-1.027114
2025-01-15T10:00:42.440Z,-0.110233,-0.003194,-1.092866
2025-01-15T10:00:42.480Z,-0.063016,0.016905,-1.036159
2025-01-15T10:00:42.520Z,0.069079,0.04853,-1.037595
2025-01-15T10:00:42.560Z,0.052371,0.010789,-0.947737
2025-01-15T10:00:42.600Z,-0.078982,0.00409,-1.027075
2025-01-15T10:00:42.640Z,-0.014364,-0.003313,-1.018148
2025-01-15T10:00:42.680Z,-0.064947,-0.010018,-0.969737
2025-01-15T10:00:42.720Z,0.014051,-0.002341,-1.030919
2025-01-15T10:00:42.760Z,-1.628017,0.792262,0.425124
2025-01-15T10:00:42.800Z,-0.047084,-0.01141,-0.991969
2025-01-15T10:00:42.840Z,0.044045,0.002359,-1.009657
2025-01-15T10:00:42.880Z,0.041929,0.005599,0.862122
2025-01-15T10:00:42.920Z,-0.102269,0.025058,-0.934051
2025-01-15T10:00:42.960Z,0.014666,0.030051,-1.010908
2025-01-15T10:00:43.000Z,-0.010881,-0.042355,-0.976462
2025-01-15T10:00:43.040Z,-0.009586,-0.026539,-0.982891
2025-01-15T10:00:43.080Z,0.055693,0.033416,-0.943695
2025-01-15T10:00:43.120Z,-0.064014,-0.023943,-1.051994
2025-01-15T10:00:43.160Z,0.002322,0.094154,-1.045561
2025-01-15T10:00:43.200Z,0.04537,0.012917,-1.059747
2025-01-15T10:00:43.240Z,-0.010119,0.003387,-1.022775
2025-01-15T10:00:43.280Z,-0.074035,-0.019168,-1.05659
2025-01-15T10:00:43.320Z,1.78658,-0.004452,-1.033119
2025-01-15T10:00:43.360Z,0.027836,-0.030672,-0.874489
2025-01-15T10:00:43.400Z,0.037934,-0.035777,-0.966125
2025-01-15T10:00:43.440Z,0.007145,-0.078164,-1.098233
2025-01-15T10:00:43.480Z,0.005022,0.032578,-1.042361
2025-01-15T10:00:43.520Z,-1.132468,0.018488,-0.966551
2025-01-15T10:00:43.560Z,-0.012412,1.681838,-1.047523
2025-01-15T10:00:43.600Z,0.002508,-0.000463,-1.068383
2025-01-15T10:00:43.640Z,0.001375,0.027692,-0.965393
2025-01-15T10:00:43.680Z,-1.731614,0.001061,-1.009744
2025-01-15T10:00:43.720Z,0.033148,-0.031886,-0.928387
2025-01-15T10:00:43.760Z,-0.01849,-0.001918,-1.009354
2025-01-15T10:00:43.800Z,0.024923,-0.0145,-1.038799
2025-01-15T10:00:43.840Z,0.002593,-0.054259,-0.868709
2025-01-15T10:00:43.880Z,0.023406,-0.06524,-1.013521
2025-01-15T10:00:43.920Z,0.048903,-0.042862,-1.07725
2025-01-15T10:00:43.960Z,-0.001029,-0.030685,-1.019979
2025-01-15T10:00:44.000Z,0.007393,-0.050955,-0.921964
2025-01-15T10:00:44.040Z,-0.009219,-0.041354,-0.947536
2025-01-15T10:00:44.080Z,-0.01698,-0.024454,-0.925959
2025-01-15T10:00:44.120Z,1.755159,-0.042188,-1.032824
2025-01-15T10:00:44.160Z,-0.010348,0.036461,-1.102014
2025-01-15T10:00:44.200Z,-0.080234,0.039227,-1.031399
2025-01-15T10:00:44.240Z,0.023228,-0.014784,-1.059986
2025-01-15T10:00:44.280Z,-0.006172,-0.000159,-1.031754
2025-01-15T10:00:44.320Z,0.051078,0.019773,-0.909999
2025-01-15T10:00:44.360Z,-0.029177,0.035293,-1.044572
2025-01-15T10:00:44.400Z,-0.028189,0.038131,-1.014479
2025-01-15T10:00:44.440Z,0.019575,0.104223,-1.007043
2025-01-15T10:00:44.480Z,-0.096904,-0.011976,-0.970597
2025-01-15T10:00:44.520Z,-0.018761,-0.035821,-1.004422
2025-01-15T10:00:44.560Z,1.500507,0.005546,-1.084454
2025-01-15T10:00:44.600Z,0.003294,0.056684,-0.936051
2025-01-15T10:00:44.640Z,0.010791,-1.849976,-0.961095
2025-01-15T10:00:44.680Z,-0.029847,-0.007123,-0.93581
2025-01-15T10:00:44.720Z,1.120378,-0.043278,-0.987943
2025-01-15T10:00:44.760Z,0.019295,0.006561,-0.944517
2025-01-15T10:00:44.800Z,0.010183,0.031774,-0.989312
2025-01-15T10:00:44.840Z,-0.007421,-0.054142,-0.975686
2025-01-15T10:00:44.880Z,0.043992,-0.037353,-1.064039
2025-01-15T10:00:44.920Z,0.014952,-0.019951,-1.041112
2025-01-15T10:00:44.960Z,-0.027099,0.083828,-0.999116
2025-01-15T10:00:45.000Z,0.038173,0.083959,-0.988167
2025-01-15T10:00:45.040Z,0.007644,0.05589,-1.045827
2025-01-15T10:00:45.080Z,0.025616,-0.005961,-0.996747
2025-01-15T10:00:45.120Z,0.025356,0.072286,-1.031345
2025-01-15T10:00:45.160Z,0.007168,0.032188,-1.00703
2025-01-15T10:00:45.200Z,-0.061162,-0.014075,-1.004262
2025-01-15T10:00:45.240Z,0.025265,0.005093,-1.017139
2025-01-15T10:00:45.280Z,-0.036751,0.016299,-0.961049
2025-01-15T10:00:45.320Z,-0.029057,-0.021098,-0.961667
2025-01-15T10:00:45.360Z,-0.013121,0.011705,-0.958657
2025-01-15T10:00:45.400Z,0.016249,-0.031725,0.813452
2025-01-15T10:00:45.440Z,0.046729,0.013585,-1.025526
2025-01-15T10:00:45.480Z,0.07817,0.021543,-0.950624
2025-01-15T10:00:45.520Z,-0.047605,0.028767,-0.98251
2025-01-15T10:00:45.560Z,0.035617,-1.119002,-0.998629
2025-01-15T10:00:45.600Z,-1.026621,0.032632,-0.990216
2025-01-15T10:00:45.640Z,-0.0554,-0.064462,-0.940116
2025-01-15T10:00:45.680Z,-0.013527,-0.049989,-0.936415
2025-01-15T10:00:45.720Z,-0.084507,0.025567,-0.918497
2025-01-15T10:00:45.760Z,0.055346,-0.006197,-0.978586
2025-01-15T10:00:45.800Z,-0.017341,-0.047441,-0.922304
2025-01-15T10:00:45.840Z,0.007035,0.016387,-0.93613
2025-01-15T10:00:45.880Z,1.628854,-0.00928,-0.952057
2025-01-15T10:00:45.920Z,-0.064293,0.056594,-0.988649
2025-01-15T10:00:45.960Z,1.12018,-0.001438,-0.964425
2025-01-15T10:00:46.000Z,0.035197,-0.093916,-0.965111
2025-01-15T10:00:46.040Z,0.029259,0.107947,-0.9774
2025-01-15T10:00:46.080Z,0.061341,0.015369,-0.997707
2025-01-15T10:00:46.120Z,0.005464,0.052139,-1.041101
2025-01-15T10:00:46.160Z,0.030089,0.031351,-0.99261
2025-01-15T10:00:46.200Z,0.056243,0.020089,-0.995464
2025-01-15T10:00:46.240Z,0.00112,-0.020055,-0.993156
2025-01-15T10:00:46.280Z,0.052816,-0.016361,-1.024293
2025-01-15T10:00:46.320Z,-0.020928,0.042046,-0.918896
2025-01-15T10:00:46.360Z,-0.002527,-1.77944,-1.098617
2025-01-15T10:00:46.400Z,0.015831,0.067382,-1.043179
2025-01-15T10:00:46.440Z,0.000347,0.009503,-1.031731
2025-01-15T10:00:46.480Z,-0.010695,0.021452,-0.991181
2025-01-15T10:00:46.520Z,-0.049874,-0.01837,-0.987509
2025-01-15T10:00:46.560Z,-0.008757,-0.005667,-1.048776
2025-01-15T10:00:46.600Z,-0.038178,-0.018137,-0.908868
2025-01-15T10:00:46.640Z,0.0514,1.520785,-0.985211
2025-01-15T10:00:46.680Z,-0.026307,0.038761,0.33751
2025-01-15T10:00:46.720Z,0.017966,1.067998,-0.915463
2025-01-15T10:00:46.760Z,0.020172,0.016737,-0.981043
2025-01-15T10:00:46.800Z,-0.01202,-0.073327,-1.016546
2025-01-15T10:00:46.840Z,0.050548,0.025422,-1.033005
2025-01-15T10:00:46.880Z,1.774994,-0.017723,-1.08608
2025-01-15T10:00:46.920Z,0.003634,0.064034,-2.58226
2025-01-15T10:00:46.960Z,-0.002144,-0.049397,-0.913509
2025-01-15T10:00:47.000Z,-0.039829,-1.457624,-1.131543
2025-01-15T10:00:47.040Z,-0.001826,-0.025839,-0.970276
2025-01-15T10:00:47.080Z,0.054852,-0.022692,-0.977328
2025-01-15T10:00:47.120Z,-0.027879,0.030852,-1.011736
2025-01-15T10:00:47.160Z,0.02764,0.023918,-0.938348
2025-01-15T10:00:47.200Z,-0.046994,0.032556,-1.091668
2025-01-15T10:00:47.240Z,-0.043935,-0.04755,-1.048327
2025-01-15T10:00:47.280Z,0.047604,0.02816,-0.988284
2025-01-15T10:00:47.320Z,-0.026704,-0.090777,-0.881667
2025-01-15T10:00:47.360Z,-0.032553,0.037427,-1.109708
2025-01-15T10:00:47.400Z,-0.06347,-0.066925,-1.135203
2025-01-15T10:00:47.440Z,0.003927,0.012316,-0.960436
2025-01-15T10:00:47.480Z,-0.013459,0.057554,-1.00842
2025-01-15T10:00:47.520Z,0.022245,0.040838,0.225163
2025-01-15T10:00:47.560Z,0.072569,0.017113,-1.082131
2025-01-15T10:00:47.600Z,0.091824,-0.020413,-1.094971
2025-01-15T10:00:47.640Z,0.039188,-0.005608,-0.997716
2025-01-15T10:00:47.680Z,-0.006546,-0.052091,-0.936719
2025-01-15T10:00:47.720Z,0.010967,-0.007152,-0.986691
2025-01-15T10:00:47.760Z,0.008493,0.01908,-0.980523
2025-01-15T10:00:47.800Z,-0.058521,0.06408,-1.065614
2025-01-15T10:00:47.840Z,0.074627,-0.07471,-0.975624
2025-01-15T10:00:47.880Z,-0.021397,0.034111,-0.955322
2025-01-15T10:00:47.920Z,-0.05071,-0.035102,-1.035058
2025-01-15T10:00:47.960Z,-0.013532,-0.005251,-0.96526
2025-01-15T10:00:48.000Z,0.003532,0.025591,-0.983453
2025-01-15T10:00:48.040Z,0.0225,-0.017003,-0.933964
2025-01-15T10:00:48.080Z,0.063127,-0.008498,-0.905761
2025-01-15T10:00:48.120Z,-0.045791,-0.056092,-1.019853
2025-01-15T10:00:48.160Z,0.048914,0.002723,-1.040362
2025-01-15T10:00:48.200Z,-0.057472,-0.029715,-1.026001
2025-01-15T10:00:48.240Z,0.10811,-0.07517,-1.047868
2025-01-15T10:00:48.280Z,0.02814,1.554529,-0.989957
2025-01-15T10:00:48.320Z,-0.112655,-0.061448,-1.119767
2025-01-15T10:00:48.360Z,-0.004658,-0.018189,-1.050849
2025-01-15T10:00:48.400Z,-0.047199,-0.090919,-1.03709
2025-01-15T10:00:48.440Z,-0.01139,-0.013577,-1.091225
2025-01-15T10:00:48.480Z,0.057718,0.051978,-0.990289
2025-01-15T10:00:48.520Z,0.016088,-0.028348,-1.114283
2025-01-15T10:00:48.560Z,0.021986,0.035695,-1.014602
2025-01-15T10:00:48.600Z,0.028021,-1.008393,-1.002262
2025-01-15T10:00:48.640Z,0.030775,-0.052463,-1.029716
2025-01-15T10:00:48.680Z,-0.007227,-0.002596,-0.928001
2025-01-15T10:00:48.720Z,-0.012243,-0.009329,-0.926162
2025-01-15T10:00:48.760Z,0.061807,-0.028266,-1.059487
2025-01-15T10:00:48.800Z,-0.018758,-0.016633,-0.977661
2025-01-15T10:00:48.840Z,-0.045432,0.086401,-0.978454
2025-01-15T10:00:48.880Z,0.056684,0.013803,-0.98879
2025-01-15T10:00:48.920Z,0.034468,-0.069184,-1.040534
2025-01-15T10:00:48.960Z,-0.002788,-0.005552,-1.030476
2025-01-15T10:00:49.000Z,-0.014272,-0.00163,-1.032977
2025-01-15T10:00:49.040Z,-0.059927,-0.099876,-0.985543
2025-01-15T10:00:49.080Z,-0.008678,0.029781,-0.924016
2025-01-15T10:00:49.120Z,-0.054741,-0.002604,-1.085692
2025-01-15T10:00:49.160Z,0.017364,0.008096,-1.046079
2025-01-15T10:00:49.200Z,-0.04226,0.068766,-0.928872
2025-01-15T10:00:49.240Z,-0.043617,0.018439,-1.058625
2025-01-15T10:00:49.280Z,-0.009207,-0.00113,-0.918081
2025-01-15T10:00:49.320Z,-0.020096,-0.056557,-0.990526
2025-01-15T10:00:49.360Z,-0.045224,0.010548,-1.088919
2025-01-15T10:00:49.400Z,-1.788934,0.019422,-0.927173
2025-01-15T10:00:49.440Z,-0.013151,0.015159,-0.98226
2025-01-15T10:00:49.480Z,-0.065027,0.028922,-1.004562
2025-01-15T10:00:49.520Z,0.015644,0.033865,-1.117666
2025-01-15T10:00:49.560Z,0.056379,0.012468,-1.004453
2025-01-15T10:00:49.600Z,0.004869,-0.011446,-0.989173
2025-01-15T10:00:49.640Z,-0.03337,-0.005014,-1.025555
2025-01-15T10:00:49.680Z,0.062622,-0.001049,-1.013295
2025-01-15T10:00:49.720Z,-0.030118,-0.007504,-1.08125
2025-01-15T10:00:49.760Z,-0.027614,-0.089847,-1.075121
2025-01-15T10:00:49.800Z,0.03058,0.015868,-1.037903
2025-01-15T10:00:49.840Z,-0.004035,-0.050276,-1.029906
2025-01-15T10:00:49.880Z,0.006126,0.04614,-1.001796
2025-01-15T10:00:49.920Z,0.03016,0.025312,-1.045401
2025-01-15T10:00:49.960Z,-0.049233,0.043654,-0.969334
2025-01-15T10:00:50.000Z,-0.005429,-0.070691,-1.011054
2025-01-15T10:00:50.040Z,0.048726,-0.065406,-0.967586
2025-01-15T10:00:50.080Z,0.013955,0.01276,-1.0441
2025-01-15T10:00:50.120Z,0.070216,0.074562,-1.174115
2025-01-15T10:00:50.160Z,0.057917,0.027378,-0.958121
2025-01-15T10:00:50.200Z,-0.063227,0.075816,-1.070168
2025-01-15T10:00:50.240Z,-0.037692,0.055305,-0.978331
2025-01-15T10:00:50.280Z,-0.041332,-0.011269,-1.008994
2025-01-15T10:00:50.320Z,0.048295,0.02424,-0.932132
2025-01-15T10:00:50.360Z,-0.025917,0.065669,-1.016122
2025-01-15T10:00:50.400Z,0.035142,0.023231,0.602459
2025-01-15T10:00:50.440Z,0.002832,0.012997,-0.948913
2025-01-15T10:00:50.480Z,0.046604,0.003163,-0.982376
2025-01-15T10:00:50.520Z,-0.033097,0.009448,-1.035301
2025-01-15T10:00:50.560Z,-0.017996,-0.021678,-0.986618
2025-01-15T10:00:50.600Z,0.009831,0.09747,-0.991265
2025-01-15T10:00:50.640Z,-0.084455,-0.026865,-0.937574
2025-01-15T10:00:50.680Z,0.044697,0.045697,0.764946
2025-01-15T10:00:50.720Z,-0.007691,-0.017597,-1.013246
2025-01-15T10:00:50.760Z,0.017468,0.042741,-1.082936
2025-01-15T10:00:50.800Z,-0.023545,0.004883,-0.937468
2025-01-15T10:00:50.840Z,-0.032652,-0.020046,-0.901254
2025-01-15T10:00:50.880Z,0.023771,0.046418,-0.99121
2025-01-15T10:00:50.920Z,-0.024707,0.031417,-0.986455
2025-01-15T10:00:50.960Z,-1.039848,0.655353,0.100333
2025-01-15T10:00:51.000Z,0.019733,0.030147,-1.018614
2025-01-15T10:00:51.040Z,0.052309,0.016719,-1.03488
2025-01-15T10:00:51.080Z,0.081286,-0.021485,-0.934145
2025-01-15T10:00:51.120Z,0.01227,-0.03234,-0.968886
2025-01-15T10:00:51.160Z,-0.042741,0.003105,-1.004763
2025-01-15T10:00:51.200Z,-0.026047,0.089617,-0.994815
2025-01-15T10:00:51.240Z,0.03065,0.023,-1.063285
2025-01-15T10:00:51.280Z,0.059974,-0.026172,-0.990434
2025-01-15T10:00:51.320Z,0.039767,-0.025398,-0.914786
2025-01-15T10:00:51.360Z,-0.026389,0.02927,-0.970315
2025-01-15T10:00:51.400Z,0.034749,0.083061,-1.01437
2025-01-15T10:00:51.440Z,0.042923,-0.076077,-1.075388
2025-01-15T10:00:51.480Z,-0.004542,0.027292,-0.980305
2025-01-15T10:00:51.520Z,1.820034,0.015411,-1.061613
2025-01-15T10:00:51.560Z,-0.067221,0.072848,-0.930592
2025-01-15T10:00:51.600Z,0.033037,0.005831,-1.008803
2025-01-15T10:00:51.640Z,0.033829,0.028989,-0.993937
2025-01-15T10:00:51.680Z,0.041969,0.022736,-1.01269
2025-01-15T10:00:51.720Z,-0.012042,-0.020619,-0.994901
2025-01-15T10:00:51.760Z,0.042866,-0.028119,-0.94563
2025-01-15T10:00:51.800Z,0.053345,0.003651,-1.021188
2025-01-15T10:00:51.840Z,0.016375,0.001232,-0.931624
2025-01-15T10:00:51.880Z,-0.049765,0.002201,-0.965453
2025-01-15T10:00:51.920Z,-0.054805,-0.040027,-1.03652
2025-01-15T10:00:51.960Z,0.007328,-0.041956,-0.981221
2025-01-15T10:00:52.000Z,-0.101437,-0.028519,-0.928058
2025-01-15T10:00:52.040Z,0.084333,0.063805,-1.01673
2025-01-15T10:00:52.080Z,0.021589,-0.063052,-0.926227
2025-01-15T10:00:52.120Z,0.020918,-0.032865,-0.924769
2025-01-15T10:00:52.160Z,-0.012987,-0.003815,-1.006987
2025-01-15T10:00:52.200Z,-0.036185,-0.062945,-1.020942
2025-01-15T10:00:52.240Z,-0.050598,-0.064029,-1.037008
2025-01-15T10:00:52.280Z,0.07879,0.005288,-1.01481
2025-01-15T10:00:52.320Z,0.007085,-0.036116,-0.924544
2025-01-15T10:00:52.360Z,0.00588,-0.036788,-1.037007
2025-01-15T10:00:52.400Z,-0.018744,1.145354,-0.948033
2025-01-15T10:00:52.440Z,-0.023665,-0.066739,-1.018436
2025-01-15T10:00:52.480Z,-0.006951,-0.018962,-0.979419
2025-01-15T10:00:52.520Z,0.042095,0.013064,-1.022286
2025-01-15T10:00:52.560Z,-0.002524,0.050898,-0.941477
2025-01-15T10:00:52.600Z,0.039578,0.015977,-0.98696
2025-01-15T10:00:52.640Z,-0.017263,0.028229,-0.987708
2025-01-15T10:00:52.680Z,-0.063166,0.077424,-1.083593
2025-01-15T10:00:52.720Z,-0.0029,0.001678,-1.059359
2025-01-15T10:00:52.760Z,0.039911,-0.070956,-1.027566
2025-01-15T10:00:52.800Z,-0.012535,0.02288,-1.0242
2025-01-15T10:00:52.840Z,-0.047231,0.01918,-0.994788
2025-01-15T10:00:52.880Z,-0.032266,-0.025969,-0.968971
2025-01-15T10:00:52.920Z,-0.038886,0.048379,-1.028384
2025-01-15T10:00:52.960Z,0.017131,-0.016141,-1.025718
2025-01-15T10:00:53.000Z,-0.078663,0.060584,-1.018389
2025-01-15T10:00:53.040Z,0.016706,-0.020586,-1.021195
2025-01-15T10:00:53.080Z,-0.003202,-0.083322,-0.982931
2025-01-15T10:00:53.120Z,0.027502,0.018112,-0.985418
2025-01-15T10:00:53.160Z,0.038965,-0.003128,-1.043704
2025-01-15T10:00:53.200Z,-0.074599,-0.002201,-1.034804
2025-01-15T10:00:53.240Z,0.009576,-0.071459,-1.101607
2025-01-15T10:00:53.280Z,0.013852,-0.066348,-1.040357
2025-01-15T10:00:53.320Z,0.042382,0.036664,-0.963673
2025-01-15T10:00:53.360Z,0.073678,-1.271985,-0.99039
2025-01-15T10:00:53.400Z,0.057296,0.00099,-0.995375
2025-01-15T10:00:53.440Z,-0.049713,0.076341,-1.121831
2025-01-15T10:00:53.480Z,0.060533,-0.024224,-1.015608
2025-01-15T10:00:53.520Z,0.003091,0.010712,-1.013783
2025-01-15T10:00:53.560Z,-1.821402,0.016556,-0.968043
2025-01-15T10:00:53.600Z,0.050426,-0.022174,-0.978928
2025-01-15T10:00:53.640Z,-1.5082,0.019492,-1.003997
2025-01-15T10:00:53.680Z,0.006425,0.004359,-1.031266
2025-01-15T10:00:53.720Z,0.043989,-0.026992,-0.915065
2025-01-15T10:00:53.760Z,-0.04093,0.007159,-1.00852
2025-01-15T10:00:53.800Z,-0.02783,0.056308,-0.981498
2025-01-15T10:00:53.840Z,0.059636,0.156572,-1.028588
2025-01-15T10:00:53.880Z,-1.640622,0.022578,-0.911145
2025-01-15T10:00:53.920Z,0.094633,-0.0027,-0.939064
2025-01-15T10:00:53.960Z,-0.023663,-0.009377,-1.02362
2025-01-15T10:00:54.000Z,0.091239,0.012593,-0.990521
2025-01-15T10:00:54.040Z,0.020884,-1.744328,-1.064284
2025-01-15T10:00:54.080Z,0.063123,-0.052746,-1.039787
2025-01-15T10:00:54.120Z,-0.035808,-0.028028,-1.009142
2025-01-15T10:00:54.160Z,-0.053654,0.012233,-1.01411
2025-01-15T10:00:54.200Z,0.027149,-0.014146,-0.984581
2025-01-15T10:00:54.240Z,-0.009756,-0.002973,-1.043149
2025-01-15T10:00:54.280Z,-0.007709,-0.001441,-0.975541
2025-01-15T10:00:54.320Z,0.060611,-0.026975,-0.934774
2025-01-15T10:00:54.360Z,0.015065,0.031756,-1.005988
2025-01-15T10:00:54.400Z,0.022866,-0.034843,-0.964522
2025-01-15T10:00:54.440Z,0.021445,-0.076681,-1.024372
2025-01-15T10:00:54.480Z,0.022238,-0.020966,-1.034943
2025-01-15T10:00:54.520Z,0.010237,0.04567,-1.065127
2025-01-15T10:00:54.560Z,0.041904,0.034687,-0.995498
2025-01-15T10:00:54.600Z,0.047954,-0.012431,-1.016231
2025-01-15T10:00:54.640Z,0.011823,-0.086641,-1.009631
2025-01-15T10:00:54.680Z,-0.017301,-0.011144,-1.066247
2025-01-15T10:00:54.720Z,0.014748,-0.005448,-1.035979
2025-01-15T10:00:54.760Z,0.628166,1.004321,-1.626445
2025-01-15T10:00:54.800Z,-0.017635,0.015555,-1.045389
2025-01-15T10:00:54.840Z,-0.021019,-0.011319,-1.038737
2025-01-15T10:00:54.880Z,0.038017,0.009949,-0.982282
2025-01-15T10:00:54.920Z,0.036614,-0.030551,-1.036767
2025-01-15T10:00:54.960Z,-0.002525,0.013702,-0.958598
2025-01-15T10:00:55.000Z,0.039027,-0.042405,-0.941274
2025-01-15T10:00:55.040Z,-0.007457,-0.014214,-0.919534
2025-01-15T10:00:55.080Z,0.036144,0.042321,-0.982031
2025-01-15T10:00:55.120Z,0.025467,0.001292,-1.046419
2025-01-15T10:00:55.160Z,0.010974,-0.089835,-0.904209
2025-01-15T10:00:55.200Z,-0.014784,-0.037539,-2.831365
2025-01-15T10:00:55.240Z,-0.074682,0.019346,-0.973187
2025-01-15T10:00:55.280Z,-0.055312,-0.065236,-0.990622
2025-01-15T10:00:55.320Z,-0.044974,0.025988,-1.022215
2025-01-15T10:00:55.360Z,-0.11573,0.015423,-1.052785
2025-01-15T10:00:55.400Z,-1.033623,-0.024428,-0.945865
2025-01-15T10:00:55.440Z,-0.03367,0.017653,-1.005502
2025-01-15T10:00:55.480Z,-0.046557,0.078904,-1.007096
2025-01-15T10:00:55.520Z,0.018141,-0.02206,-1.008597
2025-01-15T10:00:55.560Z,-0.024751,0.00314,-0.936806
2025-01-15T10:00:55.600Z,0.007805,-1.29436,-0.974711
2025-01-15T10:00:55.640Z,0.052531,0.034432,-0.931634
2025-01-15T10:00:55.680Z,0.005373,0.033882,-0.923088
2025-01-15T10:00:55.720Z,0.00989,0.022839,-1.015958
2025-01-15T10:00:55.760Z,0.075336,-0.007415,-0.973085
2025-01-15T10:00:55.800Z,0.15292,-0.980243,-0.924189
2025-01-15T10:00:55.840Z,0.007083,-0.038671,-1.023643
2025-01-15T10:00:55.880Z,0.10691,0.019793,-0.977055
2025-01-15T10:00:55.920Z,0.019272,-0.031177,-1.046966
2025-01-15T10:00:55.960Z,-0.032273,0.133482,-0.929709
2025-01-15T10:00:56.000Z,0.002858,0.002053,-0.969897
2025-01-15T10:00:56.040Z,0.029085,0.00251,-0.946931
2025-01-15T10:00:56.080Z,1.653448,-0.045738,-0.969661
2025-01-15T10:00:56.120Z,0.004152,-0.09306,-1.046472
2025-01-15T10:00:56.160Z,0.036588,0.006707,-1.003785
2025-01-15T10:00:56.200Z,0.020872,0.007211,-1.07256
2025-01-15T10:00:56.240Z,-0.089558,-0.059822,-0.999456
2025-01-15T10:00:56.280Z,-0.020969,-0.069075,-0.95946
2025-01-15T10:00:56.320Z,0.071201,0.019167,-0.992839
2025-01-15T10:00:56.360Z,0.007669,-0.000265,-1.016156
2025-01-15T10:00:56.400Z,-1.289777,-0.003598,-0.989816
2025-01-15T10:00:56.440Z,-0.019867,0.026583,-0.9336
2025-01-15T10:00:56.480Z,0.031358,-0.000374,-0.992472
2025-01-15T10:00:56.520Z,-0.01844,0.007286,-1.016316
2025-01-15T10:00:56.560Z,0.009263,-0.00205,-0.981683
2025-01-15T10:00:56.600Z,-0.069598,-0.051568,-0.942476
2025-01-15T10:00:56.640Z,-0.015953,-0.009292,-2.297105
2025-01-15T10:00:56.680Z,0.03348,0.002359,-0.95658
2025-01-15T10:00:56.720Z,-0.0564,-0.058084,-1.026658
2025-01-15T10:00:56.760Z,0.135252,0.028071,-1.039787
2025-01-15T10:00:56.800Z,0.016222,0.004752,-1.028639
2025-01-15T10:00:56.840Z,0.031386,0.009707,-1.02297
2025-01-15T10:00:56.880Z,-0.031772,0.029656,-1.006307
2025-01-15T10:00:56.920Z,0.041825,-0.015616,-0.980993
2025-01-15T10:00:56.960Z,-0.045093,0.068839,-0.962415
2025-01-15T10:00:57.000Z,0.0115,-0.087976,-1.049742
2025-01-15T10:00:57.040Z,0.057258,0.016643,-0.923546
2025-01-15T10:00:57.080Z,0.033612,-0.008836,-1.101538
2025-01-15T10:00:57.120Z,0.022546,-0.002197,-1.045135
2025-01-15T10:00:57.160Z,0.036625,-0.086314,-1.055562
2025-01-15T10:00:57.200Z,-0.001946,-0.017515,-0.989045
2025-01-15T10:00:57.240Z,0.051306,-0.029013,-0.989108
2025-01-15T10:00:57.280Z,-0.020494,-0.049639,-0.966185
2025-01-15T10:00:57.320Z,-0.084896,-0.01888,-0.976568
2025-01-15T10:00:57.360Z,0.122143,0.052407,-0.924363
2025-01-15T10:00:57.400Z,-0.042671,0.004413,-0.995926
2025-01-15T10:00:57.440Z,0.064175,-0.041184,-0.920841
2025-01-15T10:00:57.480Z,-0.051149,0.028458,-0.979562
2025-01-15T10:00:57.520Z,0.035997,0.073945,-1.027745
2025-01-15T10:00:57.560Z,-0.007899,0.085376,-0.958479
2025-01-15T10:00:57.600Z,0.013404,0.000372,-0.99664
2025-01-15T10:00:57.640Z,0.021133,0.009229,-1.080323
2025-01-15T10:00:57.680Z,0.007602,-0.006163,-1.012406
2025-01-15T10:00:57.720Z,-0.016039,0.081186,-0.962962
2025-01-15T10:00:57.760Z,-0.037362,-0.032388,-1.130041
2025-01-15T10:00:57.800Z,0.032767,-0.040181,-0.958581
2025-01-15T10:00:57.840Z,0.041352,-0.035254,-0.946537
2025-01-15T10:00:57.880Z,0.064825,0.036815,-1.00935
2025-01-15T10:00:57.920Z,0.016644,-0.064532,-1.033704
2025-01-15T10:00:57.960Z,-0.061706,0.034198,-0.933956
2025-01-15T10:00:58.000Z,0.061719,-0.085429,-0.982029
2025-01-15T10:00:58.040Z,0.053532,0.042118,-0.958155
2025-01-15T10:00:58.080Z,-0.022205,0.050928,-0.964387
2025-01-15T10:00:58.120Z,0.047064,-0.005087,-1.002382
2025-01-15T10:00:58.160Z,0.030479,0.024228,-0.957527
2025-01-15T10:00:58.200Z,-0.033769,-0.016816,-2.80902
2025-01-15T10:00:58.240Z,-0.070874,0.007913,-1.027954
2025-01-15T10:00:58.280Z,-0.041842,-0.011594,-0.974488
2025-01-15T10:00:58.320Z,0.038085,-0.052027,-1.012902
2025-01-15T10:00:58.360Z,-0.027247,-0.052655,-1.044034
2025-01-15T10:00:58.400Z,0.086537,0.103211,-1.062442
2025-01-15T10:00:58.440Z,0.019261,-0.031665,-1.080289
2025-01-15T10:00:58.480Z,0.007045,-0.091542,-0.915124
2025-01-15T10:00:58.520Z,0.014046,-0.023563,-1.046312
2025-01-15T10:00:58.560Z,-0.011203,0.067038,-0.895376
2025-01-15T10:00:58.600Z,0.079081,0.002502,-0.923169
2025-01-15T10:00:58.640Z,0.002759,-0.040062,0.525601
2025-01-15T10:00:58.680Z,0.005533,-0.001364,-0.943514
2025-01-15T10:00:58.720Z,-0.019683,0.05697,-0.984936
2025-01-15T10:00:58.760Z,0.012604,-0.001413,-0.924687
2025-01-15T10:00:58.800Z,-0.064451,0.021856,-1.02043
2025-01-15T10:00:58.840Z,-0.005967,0.006835,-0.960985
2025-01-15T10:00:58.880Z,-0.000733,0.009078,-0.999266
2025-01-15T10:00:58.920Z,-0.02376,-0.076045,-0.916383
2025-01-15T10:00:58.960Z,0.01033,0.019115,-1.141553
2025-01-15T10:00:59.000Z,-0.062837,0.000374,-1.011236
2025-01-15T10:00:59.040Z,-0.008988,0.014607,-0.936994
2025-01-15T10:00:59.080Z,0.016219,0.030051,-0.990907
2025-01-15T10:00:59.120Z,0.032686,-0.027671,-1.006325
2025-01-15T10:00:59.160Z,-0.003242,0.015108,-0.98053
2025-01-15T10:00:59.200Z,0.036936,0.028016,-1.054141
2025-01-15T10:00:59.240Z,-0.025828,0.027609,-0.011937
2025-01-15T10:00:59.280Z,-0.021158,-0.100263,-0.964847
2025-01-15T10:00:59.320Z,0.025943,0.020999,-1.109448
2025-01-15T10:00:59.360Z,-0.003525,0.005669,-1.058857
2025-01-15T10:00:59.400Z,-1.775845,0.005343,-0.990555
2025-01-15T10:00:59.440Z,0.043399,-0.041148,-1.031973
2025-01-15T10:00:59.480Z,-0.036199,0.012732,-1.089399
2025-01-15T10:00:59.520Z,0.041258,-0.014347,-1.02975
2025-01-15T10:00:59.560Z,0.050915,0.048667,-0.966298
2025-01-15T10:00:59.600Z,0.010161,-0.018264,-1.033655
2025-01-15T10:00:59.640Z,-0.12152,-0.979064,-0.968096
2025-01-15T10:00:59.680Z,0.017867,0.002692,-0.946028
2025-01-15T10:00:59.720Z,-0.035887,0.072933,-1.027521
2025-01-15T10:00:59.760Z,0.033523,0.028078,-0.991693
2025-01-15T10:00:59.800Z,-0.022651,0.033508,-1.094135
2025-01-15T10:00:59.840Z,0.07839,0.002915,-0.991246
2025-01-15T10:00:59.880Z,0.007751,-0.063519,-0.968697
2025-01-15T10:00:59.920Z,-0.063916,-0.001846,-1.013793
2025-01-15T10:00:59.960Z,-0.013453,1.102896,-1.043397
2025-01-15T10:01:00.000Z,-0.013228,0.036771,-0.938975
2025-01-15T10:01:00.040Z,-0.021455,0.025864,-0.990341
2025-01-15T10:01:00.080Z,0.020201,0.065774,-0.979171
2025-01-15T10:01:00.120Z,-0.044238,-0.024284,-1.003928
2025-01-15T10:01:00.160Z,0.054419,-0.019122,-0.960159
2025-01-15T10:01:00.200Z,0.011637,-0.010783,-0.951003
2025-01-15T10:01:00.240Z,-0.02269,0.0533,-0.979009
2025-01-15T10:01:00.280Z,0.019097,0.003806,-0.943486
2025-01-15T10:01:00.320Z,-0.015881,-0.050667,-0.977213
2025-01-15T10:01:00.360Z,-0.036457,0.022598,-0.96145
2025-01-15T10:01:00.400Z,0.060844,0.028738,-0.974593
2025-01-15T10:01:00.440Z,0.012117,0.112309,-0.910976
2025-01-15T10:01:00.480Z,0.046811,-0.006281,-0.996665
2025-01-15T10:01:00.520Z,0.037872,-0.011266,-0.946124
2025-01-15T10:01:00.560Z,-0.093021,0.029595,-0.92397
2025-01-15T10:01:00.600Z,-0.029851,0.046487,-0.983672
2025-01-15T10:01:00.640Z,-0.025483,-0.025948,-1.025476
2025-01-15T10:01:00.680Z,-0.003361,-0.000201,-0.986674
2025-01-15T10:01:00.720Z,0.019834,0.02826,-1.015122
2025-01-15T10:01:00.760Z,0.00142,-0.036562,-1.099439
2025-01-15T10:01:00.800Z,0.006605,-0.020913,-1.021701
2025-01-15T10:01:00.840Z,0.054472,0.032613,-1.058718
2025-01-15T10:01:00.880Z,0.042125,-0.020897,-1.020344
2025-01-15T10:01:00.920Z,0.040225,-0.051894,-1.067446
2025-01-15T10:01:00.960Z,0.007723,-0.030166,-1.001191
2025-01-15T10:01:01.000Z,0.010753,0.012865,-1.050366
2025-01-15T10:01:01.040Z,0.035951,-0.003707,-0.9819
2025-01-15T10:01:01.080Z,-0.056143,0.027383,-0.952308
2025-01-15T10:01:01.120Z,-0.055794,0.011824,-0.994045
2025-01-15T10:01:01.160Z,-0.054663,-0.011246,-1.067989
2025-01-15T10:01:01.200Z,0.026953,-0.098974,-1.054263
2025-01-15T10:01:01.240Z,-0.005906,0.035515,-1.037486
2025-01-15T10:01:01.280Z,-0.014363,-0.048227,-1.021186
2025-01-15T10:01:01.320Z,0.000338,-0.000131,-1.064988
2025-01-15T10:01:01.360Z,-0.029485,0.046581,-1.027701
2025-01-15T10:01:01.400Z,-0.02112,1.475335,-0.103034
2025-01-15T10:01:01.440Z,0.047578,-0.059281,-1.146314
2025-01-15T10:01:01.480Z,-0.010422,-0.016519,-1.015622
2025-01-15T10:01:01.520Z,0.006522,-0.006905,-0.981549
2025-01-15T10:01:01.560Z,-0.019259,0.01001,-1.032866
2025-01-15T10:01:01.600Z,-0.028751,-0.043586,-0.985189
2025-01-15T10:01:01.640Z,-0.05529,-0.011219,-0.954552
2025-01-15T10:01:01.680Z,0.03468,0.004275,-0.947684
2025-01-15T10:01:01.720Z,0.008495,0.005961,-1.10073
2025-01-15T10:01:01.760Z,0.114445,0.009947,-1.063567
2025-01-15T10:01:01.800Z,0.043044,0.076047,-1.091008
2025-01-15T10:01:01.840Z,1.335467,-0.022288,-1.093614
2025-01-15T10:01:01.880Z,0.037338,-0.027336,-1.046445
2025-01-15T10:01:01.920Z,0.011239,-0.011176,-2.59024
2025-01-15T10:01:01.960Z,-0.05312,0.046269,-1.036139
2025-01-15T10:01:02.000Z,-0.02901,0.000124,-1.012706
2025-01-15T10:01:02.040Z,-0.002819,0.007555,-1.042398
2025-01-15T10:01:02.080Z,0.021536,0.006351,-1.072489
2025-01-15T10:01:02.120Z,-0.025165,-0.014246,-1.017426
2025-01-15T10:01:02.160Z,-0.022104,-0.002463,-1.05433
2025-01-15T10:01:02.200Z,-0.020818,-0.002087,-0.974088
2025-01-15T10:01:02.240Z,-0.070863,-0.07978,-0.977249
2025-01-15T10:01:02.280Z,0.039363,-0.001823,-0.924493
2025-01-15T10:01:02.320Z,0.031104,-0.005877,-0.939623
2025-01-15T10:01:02.360Z,-0.017413,-0.027998,-1.014434
2025-01-15T10:01:02.400Z,-0.039121,0.066202,-0.977218
2025-01-15T10:01:02.440Z,-0.011793,0.055588,-0.994894
2025-01-15T10:01:02.480Z,-0.00165,0.036201,-1.039617
2025-01-15T10:01:02.520Z,0.08215,0.00558,-0.94323
2025-01-15T10:01:02.560Z,0.015086,0.020165,-0.96803
2025-01-15T10:01:02.600Z,0.040998,0.025181,-1.017859
2025-01-15T10:01:02.640Z,-0.060069,0.007247,-1.06102
2025-01-15T10:01:02.680Z,-0.006392,-0.086009,-1.125333
2025-01-15T10:01:02.720Z,0.055076,-0.010363,-1.085066
2025-01-15T10:01:02.760Z,-0.00747,-0.030372,-0.931217
2025-01-15T10:01:02.800Z,0.046105,0.110376,-1.012733
2025-01-15T10:01:02.840Z,-0.009605,-0.033279,-0.982183
2025-01-15T10:01:02.880Z,0.065882,0.003604,-1.026126
2025-01-15T10:01:02.920Z,-0.021826,-0.04958,-0.984296
2025-01-15T10:01:02.960Z,0.072865,-0.03601,-0.99843
2025-01-15T10:01:03.000Z,0.014988,0.032458,-0.968892
2025-01-15T10:01:03.040Z,0.043795,0.000723,-1.08962
2025-01-15T10:01:03.080Z,-1.916895,-0.018475,-1.033015
2025-01-15T10:01:03.120Z,0.016199,-0.04269,-1.003943
2025-01-15T10:01:03.160Z,-0.012443,0.043272,-1.030533
2025-01-15T10:01:03.200Z,-3.603585,1.63295,-2.70056
2025-01-15T10:01:03.240Z,0.005081,0.032523,-1.010005
2025-01-15T10:01:03.280Z,-0.05006,0.000859,-0.971943
2025-01-15T10:01:03.320Z,0.039815,0.008116,-1.01059
2025-01-15T10:01:03.360Z,0.018816,0.027098,-1.00107
2025-01-15T10:01:03.400Z,-0.082579,0.057945,-0.979549
2025-01-15T10:01:03.440Z,0.034956,0.000848,-0.99301
2025-01-15T10:01:03.480Z,0.01504,-0.03889,-1.075427
2025-01-15T10:01:03.520Z,0.052633,0.033138,-0.86831
2025-01-15T10:01:03.560Z,1.941049,-0.030945,-1.010461
2025-01-15T10:01:03.600Z,0.05737,0.060896,-0.977894
2025-01-15T10:01:03.640Z,0.040866,-0.064004,-1.044272
2025-01-15T10:01:03.680Z,0.026135,0.016778,-1.05183
2025-01-15T10:01:03.720Z,-0.067754,0.08466,-0.995866
2025-01-15T10:01:03.760Z,-0.012846,-0.026209,-1.014282
2025-01-15T10:01:03.800Z,0.038341,0.020356,-0.996199
2025-01-15T10:01:03.840Z,0.01359,0.076578,-0.988599
2025-01-15T10:01:03.880Z,0.039664,0.03614,-1.06682
2025-01-15T10:01:03.920Z,-0.008598,-0.017683,-1.052717
2025-01-15T10:01:03.960Z,-0.000529,-0.024509,-1.063739
2025-01-15T10:01:04.000Z,0.069262,-0.048005,-1.018996
2025-01-15T10:01:04.040Z,0.023118,0.033189,-0.977606
2025-01-15T10:01:04.080Z,0.024324,-0.030984,-0.894747
2025-01-15T10:01:04.120Z,-0.011658,0.01505,-0.92017
2025-01-15T10:01:04.160Z,-1.188169,0.025224,-0.968474
2025-01-15T10:01:04.200Z,0.032176,-0.039917,-1.009049
2025-01-15T10:01:04.240Z,-0.003403,-0.029661,-0.972547
2025-01-15T10:01:04.280Z,-0.045011,0.015584,-1.086291
2025-01-15T10:01:04.320Z,0.022411,-0.004162,-0.921994
2025-01-15T10:01:04.360Z,-0.049846,0.008685,-1.043763
2025-01-15T10:01:04.400Z,-0.005679,0.001034,-1.034585
2025-01-15T10:01:04.440Z,-0.040728,0.018199,-0.939199
2025-01-15T10:01:04.480Z,-0.015266,0.02317,-0.978587
2025-01-15T10:01:04.520Z,-0.005581,-0.002702,-1.03775
2025-01-15T10:01:04.560Z,-0.039123,-0.033962,-0.999724
2025-01-15T10:01:04.600Z,0.035653,-0.037557,-1.002886
2025-01-15T10:01:04.640Z,0.050494,0.031249,-1.046668
2025-01-15T10:01:04.680Z,-0.020585,0.002904,-1.007179
2025-01-15T10:01:04.720Z,-0.022349,-0.00964,-1.075872
2025-01-15T10:01:04.760Z,-0.029666,0.019801,-0.938299
2025-01-15T10:01:04.800Z,0.00632,-0.028081,-1.010526
2025-01-15T10:01:04.840Z,0.048393,-0.039262,-1.03875
2025-01-15T10:01:04.880Z,-0.038768,0.057421,-0.92447
2025-01-15T10:01:04.920Z,-0.07739,0.016907,-0.972859
2025-01-15T10:01:04.960Z,0.014512,-0.00535,-0.970204
2025-01-15T10:01:05.000Z,-0.006272,-0.044132,-1.006679
2025-01-15T10:01:05.040Z,-0.042076,-0.005843,-1.002757
2025-01-15T10:01:05.080Z,-0.028418,0.020721,-0.93971
2025-01-15T10:01:05.120Z,0.077494,0.017444,-0.984529
2025-01-15T10:01:05.160Z,-1.256986,-0.08565,-1.066591
2025-01-15T10:01:05.200Z,-0.044197,0.002976,-1.012715
2025-01-15T10:01:05.240Z,-0.06136,0.060422,-0.928895
2025-01-15T10:01:05.280Z,0.00806,0.016612,-0.989798
2025-01-15T10:01:05.320Z,-0.039928,-0.038922,-0.962054
2025-01-15T10:01:05.360Z,-0.061554,-0.091105,-1.005075
2025-01-15T10:01:05.400Z,0.05292,0.074916,-1.004933
2025-01-15T10:01:05.440Z,-0.008015,0.023758,-0.992539
2025-01-15T10:01:05.480Z,0.002327,0.013941,-1.047205
2025-01-15T10:01:05.520Z,-0.053586,-1.559744,-0.98115
2025-01-15T10:01:05.560Z,-0.022401,-0.023678,-1.019432
2025-01-15T10:01:05.600Z,0.050227,-0.071174,-0.971587
2025-01-15T10:01:05.640Z,-0.084996,1.077489,-0.994304
2025-01-15T10:01:05.680Z,0.054614,0.028428,-0.962601
2025-01-15T10:01:05.720Z,0.041118,0.157711,-0.961783
2025-01-15T10:01:05.760Z,-0.007885,-0.045285,-0.995224
2025-01-15T10:01:05.800Z,-0.026393,0.056773,-1.019344
2025-01-15T10:01:05.840Z,0.002964,-0.027798,-0.98137
2025-01-15T10:01:05.880Z,-0.01425,-0.028644,-1.128557
2025-01-15T10:01:05.920Z,-0.095575,-0.004888,-1.077677
2025-01-15T10:01:05.960Z,0.008393,0.000931,-0.971804
2025-01-15T10:01:06.000Z,0.055379,-0.055353,-0.951832
2025-01-15T10:01:06.040Z,0.033332,-0.039553,-1.101073
2025-01-15T10:01:06.080Z,-0.054036,-0.046523,-1.026263
2025-01-15T10:01:06.120Z,-0.029044,0.060852,-0.960269
2025-01-15T10:01:06.160Z,-1.934397,0.037624,-0.986289
2025-01-15T10:01:06.200Z,-0.016746,-0.014487,-0.960895
2025-01-15T10:01:06.240Z,-4.7e-05,-0.029911,-1.08956
2025-01-15T10:01:06.280Z,0.01846,-0.03186,-0.967071
2025-01-15T10:01:06.320Z,-0.005468,0.028273,0.207018
2025-01-15T10:01:06.360Z,0.019563,-0.012036,-0.92156
2025-01-15T10:01:06.400Z,0.078472,0.01553,-0.953423
2025-01-15T10:01:06.440Z,-0.037707,-0.026342,-0.955649
2025-01-15T10:01:06.480Z,0.062684,0.021561,-1.018133
2025-01-15T10:01:06.520Z,0.004486,-0.078944,-0.93779
2025-01-15T10:01:06.560Z,0.014446,-0.026193,-1.049595
2025-01-15T10:01:06.600Z,0.012689,0.001835,-0.987399
2025-01-15T10:01:06.640Z,0.069864,0.012796,-0.95511
2025-01-15T10:01:06.680Z,-0.005844,0.042134,-0.957373
2025-01-15T10:01:06.720Z,-0.045466,0.015671,-1.05153
2025-01-15T10:01:06.760Z,-0.007559,-0.020203,-0.998269
2025-01-15T10:01:06.800Z,0.030615,0.013738,-0.996949
2025-01-15T10:01:06.840Z,1.379682,0.062573,-0.978752
2025-01-15T10:01:06.880Z,-0.014005,1.560461,-0.931193
2025-01-15T10:01:06.920Z,0.055868,0.043728,-1.030916
2025-01-15T10:01:06.960Z,0.010834,0.047336,-1.07205
2025-01-15T10:01:07.000Z,0.027306,-0.022878,-1.015857
2025-01-15T10:01:07.040Z,0.031546,-1.738803,-0.95734
2025-01-15T10:01:07.080Z,0.044619,0.023204,-0.940586
2025-01-15T10:01:07.120Z,-0.033925,-0.020154,-1.062831
2025-01-15T10:01:07.160Z,-0.043195,-0.022088,-0.959897
2025-01-15T10:01:07.200Z,0.062525,-0.001494,0.081446
2025-01-15T10:01:07.240Z,0.005045,-0.00419,-1.051171
2025-01-15T10:01:07.280Z,0.004374,-0.00616,-3.046958
2025-01-15T10:01:07.320Z,-0.001893,0.015325,-1.092641
2025-01-15T10:01:07.360Z,-0.942365,0.017877,-1.030425
2025-01-15T10:01:07.400Z,-0.090521,0.031072,-0.969208
2025-01-15T10:01:07.440Z,-1.370689,0.981058,-0.947367
2025-01-15T10:01:07.480Z,-0.067852,-0.074096,-1.003623
2025-01-15T10:01:07.520Z,0.050802,-0.04486,-1.091192
2025-01-15T10:01:07.560Z,0.076838,0.006016,-2.224229
2025-01-15T10:01:07.600Z,0.013025,-0.072052,-1.110342
2025-01-15T10:01:07.640Z,-0.073879,-0.019634,-1.043076
2025-01-15T10:01:07.680Z,0.010206,0.003526,-2.671733
2025-01-15T10:01:07.720Z,0.057133,0.017985,-1.03996
2025-01-15T10:01:07.760Z,-0.041962,-0.002254,-1.086799
2025-01-15T10:01:07.800Z,-0.04113,-0.011079,-0.949711
2025-01-15T10:01:07.840Z,0.018281,-0.013972,-1.06865
2025-01-15T10:01:07.880Z,0.015108,-1.566839,-0.968369
2025-01-15T10:01:07.920Z,0.073092,0.000207,-1.062159
2025-01-15T10:01:07.960Z,0.025648,0.014155,-0.920446
2025-01-15T10:01:08.000Z,0.018869,0.053578,0.435652
2025-01-15T10:01:08.040Z,-0.023419,0.023118,-1.051503
2025-01-15T10:01:08.080Z,0.030411,0.020916,-0.967238
2025-01-15T10:01:08.120Z,0.081888,0.048171,-1.054239
2025-01-15T10:01:08.160Z,-0.015958,-0.05462,-1.103717
2025-01-15T10:01:08.200Z,0.010325,0.023266,-0.934808
2025-01-15T10:01:08.240Z,-0.023438,-0.008079,-2.132801
2025-01-15T10:01:08.280Z,0.050261,0.035064,-1.008496
2025-01-15T10:01:08.320Z,-1.436421,0.01294,-0.974338
2025-01-15T10:01:08.360Z,-0.002992,-0.026059,-1.010372
2025-01-15T10:01:08.400Z,0.048011,-0.008736,-0.981606
2025-01-15T10:01:08.440Z,-0.048727,-0.000262,-1.109787
2025-01-15T10:01:08.480Z,-0.035061,-0.056016,-1.07754
2025-01-15T10:01:08.520Z,0.038327,-0.009698,-0.98943
2025-01-15T10:01:08.560Z,-0.024983,-0.067655,-0.946576
2025-01-15T10:01:08.600Z,-0.008358,0.001908,-1.065962
2025-01-15T10:01:08.640Z,0.051546,0.044047,-1.056103
2025-01-15T10:01:08.680Z,-0.052017,0.013288,-1.006087
2025-01-15T10:01:08.720Z,0.034824,0.01046,-0.964054
2025-01-15T10:01:08.760Z,0.041238,0.008528,-0.972823
2025-01-15T10:01:08.800Z,-0.019121,-0.003882,-1.07523
2025-01-15T10:01:08.840Z,-0.018849,0.028251,-0.998011
2025-01-15T10:01:08.880Z,0.10589,0.068407,-0.976126
2025-01-15T10:01:08.920Z,-0.014979,0.020411,-1.055268
2025-01-15T10:01:08.960Z,0.012342,-0.048391,-1.034017
2025-01-15T10:01:09.000Z,-0.031841,0.027234,-1.012356
2025-01-15T10:01:09.040Z,-0.023256,-0.019427,-0.96101
2025-01-15T10:01:09.080Z,0.014219,-0.020839,-0.969284
2025-01-15T10:01:09.120Z,-0.023577,-0.051059,-0.955692
2025-01-15T10:01:09.160Z,0.000982,0.045508,-0.964392
2025-01-15T10:01:09.200Z,0.088662,-0.009051,-1.06656
2025-01-15T10:01:09.240Z,0.008745,0.023083,-1.038958
2025-01-15T10:01:09.280Z,1.610585,-0.004671,-1.012385
2025-01-15T10:01:09.320Z,-0.018426,-0.047703,-0.907883
2025-01-15T10:01:09.360Z,-0.001886,-0.017709,-1.002866
2025-01-15T10:01:09.400Z,0.013435,0.016745,-1.087847
2025-01-15T10:01:09.440Z,0.03045,-0.039824,-0.935245
2025-01-15T10:01:09.480Z,-0.115774,-0.012936,-1.055326
2025-01-15T10:01:09.520Z,0.00094,-0.009448,-1.067877
2025-01-15T10:01:09.560Z,-0.041206,0.018572,-1.010887
2025-01-15T10:01:09.600Z,0.013976,-0.012338,-1.003738
2025-01-15T10:01:09.640Z,-0.021009,-0.000872,-1.04446
2025-01-15T10:01:09.680Z,-0.043788,0.028639,-1.01253
2025-01-15T10:01:09.720Z,0.034355,0.000267,-0.987002
2025-01-15T10:01:09.760Z,1.306489,-0.027168,-1.043987
2025-01-15T10:01:09.800Z,0.041568,0.033738,-0.97469
2025-01-15T10:01:09.840Z,0.01305,1.956064,-1.067619
2025-01-15T10:01:09.880Z,-0.021802,0.046198,-1.073902
2025-01-15T10:01:09.920Z,0.007648,-0.04577,-1.018964
2025-01-15T10:01:09.960Z,0.073334,-0.015329,-1.098831
2025-01-15T10:01:10.000Z,0.010238,0.057481,-0.96582
2025-01-15T10:01:10.040Z,-0.074479,1.644106,-0.928423
2025-01-15T10:01:10.080Z,-0.028111,-0.04458,-1.006651
2025-01-15T10:01:10.120Z,-0.970353,-0.022565,-0.970455
2025-01-15T10:01:10.160Z,0.042729,0.007467,-1.028337
2025-01-15T10:01:10.200Z,0.013747,0.002468,-0.960872
2025-01-15T10:01:10.240Z,-0.041301,0.005194,-1.016449
2025-01-15T10:01:10.280Z,0.004271,-0.020187,-0.995279
2025-01-15T10:01:10.320Z,0.020858,-1.433858,-0.961567
2025-01-15T10:01:10.360Z,0.011097,-0.053814,-0.969964
2025-01-15T10:01:10.400Z,0.012404,-0.004063,-1.051123
2025-01-15T10:01:10.440Z,0.018713,0.011902,-0.992335
2025-01-15T10:01:10.480Z,0.008128,-0.015113,-0.98302
2025-01-15T10:01:10.520Z,-0.024582,-0.013718,-0.880608
2025-01-15T10:01:10.560Z,-0.024939,0.002116,-1.053867
2025-01-15T10:01:10.600Z,-0.093539,0.015923,-1.032551
2025-01-15T10:01:10.640Z,-0.003777,1.932916,-1.111258
2025-01-15T10:01:10.680Z,-0.109504,-0.046249,-1.025522
2025-01-15T10:01:10.720Z,-0.03839,-0.000178,0.454753
2025-01-15T10:01:10.760Z,-0.073074,0.075954,-1.059989
2025-01-15T10:01:10.800Z,-0.043058,-0.045359,-1.103916
2025-01-15T10:01:10.840Z,0.018895,-0.043306,-0.976991
2025-01-15T10:01:10.880Z,-0.059746,0.094239,-1.023208
2025-01-15T10:01:10.920Z,0.03498,0.007489,-0.990082
2025-01-15T10:01:10.960Z,0.046844,-0.014522,-0.999691
2025-01-15T10:01:11.000Z,-0.007754,-0.021755,-0.95008
2025-01-15T10:01:11.040Z,-0.006457,0.020687,-1.038138
2025-01-15T10:01:11.080Z,0.014599,-0.084334,-1.013544
2025-01-15T10:01:11.120Z,-0.031062,0.006041,-1.057123
2025-01-15T10:01:11.160Z,0.086995,0.05044,-1.022119
2025-01-15T10:01:11.200Z,0.01359,-0.000882,-0.976418
2025-01-15T10:01:11.240Z,0.074779,-0.062492,-1.048479
2025-01-15T10:01:11.280Z,0.055861,0.070217,-1.050659
2025-01-15T10:01:11.320Z,0.013068,0.050054,-1.004138
2025-01-15T10:01:11.360Z,0.013558,-0.004743,-1.012914
2025-01-15T10:01:11.400Z,-0.076232,0.047871,-0.953861
2025-01-15T10:01:11.440Z,-0.00764,-0.024209,-1.048297
2025-01-15T10:01:11.480Z,0.048897,0.00609,-1.077188
2025-01-15T10:01:11.520Z,0.001228,0.071246,-1.062822
2025-01-15T10:01:11.560Z,-0.012332,1.579016,-1.0016
2025-01-15T10:01:11.600Z,-0.0166,0.02624,0.719004
2025-01-15T10:01:11.640Z,-0.001525,-0.058396,-0.961363
2025-01-15T10:01:11.680Z,-0.010244,-0.055259,-1.040361
2025-01-15T10:01:11.720Z,0.001398,-0.034789,-0.948309
2025-01-15T10:01:11.760Z,0.007688,-0.015822,-1.000285
2025-01-15T10:01:11.800Z,0.000902,0.056577,-1.034769
2025-01-15T10:01:11.840Z,-0.021644,0.021214,-1.027468
2025-01-15T10:01:11.880Z,-0.00532,0.006803,-0.997114
2025-01-15T10:01:11.920Z,0.017273,0.070309,-0.961537
2025-01-15T10:01:11.960Z,-0.043572,0.032933,-1.041369
2025-01-15T10:01:12.000Z,-0.036513,0.01184,-0.939002
2025-01-15T10:01:12.040Z,-0.066174,0.035758,-1.041279
2025-01-15T10:01:12.080Z,-0.033669,0.001836,-0.943919
2025-01-15T10:01:12.120Z,-0.032791,0.051657,-1.106473
2025-01-15T10:01:12.160Z,-0.034343,-0.022143,-1.000479
2025-01-15T10:01:12.200Z,-1.386485,-0.015359,-0.93209
2025-01-15T10:01:12.240Z,-0.057992,-0.005197,-1.070767
2025-01-15T10:01:12.280Z,-0.067697,-0.023926,-0.947744
2025-01-15T10:01:12.320Z,-0.013374,0.016078,-0.972425
2025-01-15T10:01:12.360Z,-0.107266,-0.015398,-0.953974
2025-01-15T10:01:12.400Z,-0.005423,-0.083241,-1.016625
2025-01-15T10:01:12.440Z,-0.013935,-0.017939,-0.934466
2025-01-15T10:01:12.480Z,-0.040954,-0.005923,0.40947
2025-01-15T10:01:12.520Z,-0.002194,-0.040527,-0.938512
2025-01-15T10:01:12.560Z,-0.049859,0.05171,-1.057051
2025-01-15T10:01:12.600Z,0.042372,-0.030797,-1.079216
2025-01-15T10:01:12.640Z,-0.027729,0.021041,-1.046256
2025-01-15T10:01:12.680Z,-0.002228,0.004273,-0.94751
2025-01-15T10:01:12.720Z,0.02332,1.37725,-0.962811
2025-01-15T10:01:12.760Z,-0.03393,-0.02401,-0.911071
2025-01-15T10:01:12.800Z,-0.003615,0.004741,-1.164617
2025-01-15T10:01:12.840Z,0.016043,-0.037634,-0.981502
2025-01-15T10:01:12.880Z,0.022514,0.070008,-0.899484
2025-01-15T10:01:12.920Z,0.052513,-0.008097,-1.040286
2025-01-15T10:01:12.960Z,-0.026853,-0.055788,-0.954356
2025-01-15T10:01:13.000Z,0.017633,0.057978,-1.026144
2025-01-15T10:01:13.040Z,0.090562,-0.001572,-1.050366
2025-01-15T10:01:13.080Z,-0.034278,-0.027455,-0.912712
2025-01-15T10:01:13.120Z,0.014284,-0.043002,-2.015869
2025-01-15T10:01:13.160Z,0.067352,-0.047602,-1.123566
2025-01-15T10:01:13.200Z,-0.028143,-0.040462,-0.971661
2025-01-15T10:01:13.240Z,0.029234,0.010466,-0.967586
2025-01-15T10:01:13.280Z,-0.006064,-0.021943,-0.985819
2025-01-15T10:01:13.320Z,-0.041851,0.020451,-1.06249
2025-01-15T10:01:13.360Z,0.001939,-0.003019,-0.974659
2025-01-15T10:01:13.400Z,0.031313,-0.0031,-1.017728
2025-01-15T10:01:13.440Z,-0.014453,0.009463,-1.027488
2025-01-15T10:01:13.480Z,-1.442959,-0.000148,-0.989448
2025-01-15T10:01:13.520Z,-0.078785,0.047976,-0.943628
2025-01-15T10:01:13.560Z,0.04107,0.101611,-0.8638
2025-01-15T10:01:13.600Z,-0.044566,0.021338,-1.021469
2025-01-15T10:01:13.640Z,0.044788,-0.001102,-1.011741
2025-01-15T10:01:13.680Z,-0.007555,-0.020738,-1.041202
2025-01-15T10:01:13.720Z,0.056574,-0.021553,-1.034349
2025-01-15T10:01:13.760Z,-0.049508,-0.002186,-1.060217
2025-01-15T10:01:13.800Z,-0.015663,-0.004126,-1.013494
2025-01-15T10:01:13.840Z,0.009075,0.012403,-1.04142
2025-01-15T10:01:13.880Z,-0.002298,-0.112063,-0.986069
2025-01-15T10:01:13.920Z,-0.041794,-0.0719,-0.920993
2025-01-15T10:01:13.960Z,-0.006071,0.059539,-0.899839
2025-01-15T10:01:14.000Z,-0.011123,0.04392,-1.066434
2025-01-15T10:01:14.040Z,0.017007,-0.017266,-1.025487
2025-01-15T10:01:14.080Z,-0.057008,0.008826,-1.044836
2025-01-15T10:01:14.120Z,0.02757,0.007115,-0.956725
2025-01-15T10:01:14.160Z,-0.017762,0.022718,-0.922989
2025-01-15T10:01:14.200Z,0.096311,-0.029967,-1.077334
2025-01-15T10:01:14.240Z,0.011039,-0.011377,-0.973512
2025-01-15T10:01:14.280Z,0.043407,-0.062181,-0.953213
2025-01-15T10:01:14.320Z,0.009539,-0.036588,-1.044406
2025-01-15T10:01:14.360Z,-0.060536,0.019876,-0.973295
2025-01-15T10:01:14.400Z,-0.016033,-0.038392,-1.049308
2025-01-15T10:01:14.440Z,-0.01729,-0.024624,-0.913163
2025-01-15T10:01:14.480Z,-0.013715,-0.036355,-1.003424
2025-01-15T10:01:14.520Z,0.038033,-0.019521,-0.967813
2025-01-15T10:01:14.560Z,0.022268,1.242095,-1.039431
2025-01-15T10:01:14.600Z,-0.014882,-0.025951,-1.015672
2025-01-15T10:01:14.640Z,0.020474,1.426147,-0.94633
2025-01-15T10:01:14.680Z,-0.031965,0.033623,-0.93499
2025-01-15T10:01:14.720Z,-0.009365,0.015869,-0.975071
2025-01-15T10:01:14.760Z,-0.035382,0.020447,-1.084874
2025-01-15T10:01:14.800Z,0.009646,0.000986,-0.988853
2025-01-15T10:01:14.840Z,0.070765,0.03588,0.68756
2025-01-15T10:01:14.880Z,-0.00022,1.132861,-0.996587
2025-01-15T10:01:14.920Z,-0.015027,0.032987,-1.007538
2025-01-15T10:01:14.960Z,-0.028492,-0.070077,-1.065309
2025-01-15T10:01:15.000Z,0.073174,-0.003624,-1.082842
2025-01-15T10:01:15.040Z,-1.490935,-0.001148,-1.037416
2025-01-15T10:01:15.080Z,-0.002344,0.055185,-1.040763
2025-01-15T10:01:15.120Z,0.002554,1.692322,-0.967186
2025-01-15T10:01:15.160Z,-0.030732,-0.020805,-0.939183
2025-01-15T10:01:15.200Z,-0.005286,-0.060487,-0.995359
2025-01-15T10:01:15.240Z,-0.029338,-0.024179,-1.017509
2025-01-15T10:01:15.280Z,0.000985,-0.021268,-0.994183
2025-01-15T10:01:15.320Z,-0.045553,-0.020933,-1.012639
2025-01-15T10:01:15.360Z,-0.030054,-0.010736,-1.139438
2025-01-15T10:01:15.400Z,-0.001292,0.016463,-1.039141
2025-01-15T10:01:15.440Z,-0.00572,0.021667,-0.987379
2025-01-15T10:01:15.480Z,-0.018716,0.026255,-0.967729
2025-01-15T10:01:15.520Z,0.045448,0.055476,-0.997631
2025-01-15T10:01:15.560Z,-0.009735,0.051042,-0.968692
2025-01-15T10:01:15.600Z,0.05766,0.031912,-0.978808
2025-01-15T10:01:15.640Z,0.037627,-0.088428,-0.986879
2025-01-15T10:01:15.680Z,0.011544,0.021069,-1.000464
2025-01-15T10:01:15.720Z,-0.070508,-0.034361,-0.953954
2025-01-15T10:01:15.760Z,0.028572,-0.005094,-0.899165
2025-01-15T10:01:15.800Z,0.00486,-0.026089,-1.037815
2025-01-15T10:01:15.840Z,0.007767,0.011086,-0.949356
2025-01-15T10:01:15.880Z,0.023355,0.002974,-0.955714
2025-01-15T10:01:15.920Z,0.015236,0.011469,-1.004334
2025-01-15T10:01:15.960Z,-0.009274,0.042742,-0.976929
2025-01-15T10:01:16.000Z,0.018316,-0.000692,0.512048
2025-01-15T10:01:16.040Z,-0.043196,-0.029111,-1.094514
2025-01-15T10:01:16.080Z,-0.020863,-0.026184,-1.019901
2025-01-15T10:01:16.120Z,0.016604,-0.01692,-0.992339
2025-01-15T10:01:16.160Z,-0.043565,-0.11324,-0.978295
2025-01-15T10:01:16.200Z,-0.057516,1.41281,-1.081464
2025-01-15T10:01:16.240Z,0.061669,0.042849,-0.954985
2025-01-15T10:01:16.280Z,-0.02491,-0.011275,-0.954599
2025-01-15T10:01:16.320Z,-0.041972,-0.045551,-0.989098
2025-01-15T10:01:16.360Z,-0.009296,-0.009253,-0.994725
2025-01-15T10:01:16.400Z,0.054705,-0.028448,-1.012182
2025-01-15T10:01:16.440Z,-0.025732,0.055089,-0.977608
2025-01-15T10:01:16.480Z,0.005631,0.034536,-0.934833
2025-01-15T10:01:16.520Z,0.012917,0.001195,-1.095141
2025-01-15T10:01:16.560Z,-0.051283,-0.045414,-0.844235
2025-01-15T10:01:16.600Z,0.057494,0.001938,-1.031223
2025-01-15T10:01:16.640Z,-0.082217,-0.013548,-0.938816
2025-01-15T10:01:16.680Z,-0.017938,-0.021728,-1.017182
2025-01-15T10:01:16.720Z,-0.001567,-0.022666,-1.025668
2025-01-15T10:01:16.760Z,0.017299,-0.006725,-0.966726
2025-01-15T10:01:16.800Z,-0.0655,-0.042519,-0.949412
2025-01-15T10:01:16.840Z,-0.03099,-0.013135,-1.010536
2025-01-15T10:01:16.880Z,-0.008025,-0.031755,-1.03633
2025-01-15T10:01:16.920Z,-0.002424,-0.004573,-1.022621
2025-01-15T10:01:16.960Z,0.020764,0.02056,-0.964961
2025-01-15T10:01:17.000Z,0.026851,0.031541,-1.015327
2025-01-15T10:01:17.040Z,-0.072892,-0.038428,-1.010733
2025-01-15T10:01:17.080Z,-0.042944,-0.030495,-1.064405
2025-01-15T10:01:17.120Z,-0.030579,-0.004936,-0.982721
2025-01-15T10:01:17.160Z,-0.006457,-0.04586,-2.407516
2025-01-15T10:01:17.200Z,0.05195,-0.011262,-1.066649
2025-01-15T10:01:17.240Z,-0.030721,-0.055244,-0.927657
2025-01-15T10:01:17.280Z,-0.024779,0.009677,-0.892885
2025-01-15T10:01:17.320Z,-0.004498,-1.808252,-0.984799
2025-01-15T10:01:17.360Z,0.044737,0.075382,-0.936989
2025-01-15T10:01:17.400Z,0.024227,0.053627,-1.115055
2025-01-15T10:01:17.440Z,-0.023901,0.023733,-0.987432
2025-01-15T10:01:17.480Z,0.04951,-0.017209,-0.95263
2025-01-15T10:01:17.520Z,0.042281,0.017151,-0.973811
2025-01-15T10:01:17.560Z,0.029747,0.032864,-0.95471
2025-01-15T10:01:17.600Z,0.046788,0.047632,-1.023314
2025-01-15T10:01:17.640Z,0.020784,-0.045768,-1.045789
2025-01-15T10:01:17.680Z,-0.010624,0.056705,-0.98308
2025-01-15T10:01:17.720Z,-0.056484,-0.090225,-0.950386
2025-01-15T10:01:17.760Z,0.073385,0.043699,-1.01137
2025-01-15T10:01:17.800Z,-0.026093,0.023425,-0.976567
2025-01-15T10:01:17.840Z,0.027451,-0.006167,-1.054629
2025-01-15T10:01:17.880Z,0.02129,-0.049805,-1.050476
2025-01-15T10:01:17.920Z,-0.005,0.060615,-0.94265
2025-01-15T10:01:17.960Z,0.036268,0.026946,-1.014522
2025-01-15T10:01:18.000Z,0.014397,0.00207,-1.003266
2025-01-15T10:01:18.040Z,-0.025563,-0.040428,-0.998199
2025-01-15T10:01:18.080Z,-0.019052,-0.073259,-1.040723
2025-01-15T10:01:18.120Z,-0.044033,0.073144,-1.009177
2025-01-15T10:01:18.160Z,0.013652,0.056589,-0.938907
2025-01-15T10:01:18.200Z,0.021011,-0.070885,-1.080197
2025-01-15T10:01:18.240Z,-0.06438,-0.001601,-0.97163
2025-01-15T10:01:18.280Z,-0.015,0.007906,-1.028971
2025-01-15T10:01:18.320Z,-0.106676,0.07709,-1.031191
2025-01-15T10:01:18.360Z,0.005681,-0.008469,-1.034836
2025-01-15T10:01:18.400Z,0.033596,0.083126,-0.96935
2025-01-15T10:01:18.440Z,-0.027895,0.057878,-1.045424
2025-01-15T10:01:18.480Z,-0.023402,-0.077112,-1.016463
2025-01-15T10:01:18.520Z,-0.031066,0.002254,0.523745
2025-01-15T10:01:18.560Z,0.053459,-0.018383,-1.026212
2025-01-15T10:01:18.600Z,-0.01878,0.002349,-1.005427
2025-01-15T10:01:18.640Z,-0.029751,0.011213,-1.083067
2025-01-15T10:01:18.680Z,-0.013113,0.001782,-0.957286
2025-01-15T10:01:18.720Z,0.02007,0.016979,-0.998421
2025-01-15T10:01:18.760Z,0.025568,0.007595,-1.137172
2025-01-15T10:01:18.800Z,0.00325,0.034129,-0.964644
2025-01-15T10:01:18.840Z,-2.029477,-0.051212,-0.956195
2025-01-15T10:01:18.880Z,0.020332,0.051308,-0.992331
2025-01-15T10:01:18.920Z,0.037565,0.044471,-0.989687
2025-01-15T10:01:18.960Z,-0.027183,-0.021644,-1.044869
2025-01-15T10:01:19.000Z,-1.374191,0.001511,-1.002845
2025-01-15T10:01:19.040Z,0.041281,-0.050776,-1.023936
2025-01-15T10:01:19.080Z,0.07387,0.014505,-2.46004
2025-01-15T10:01:19.120Z,0.049321,-0.075943,-1.071776
2025-01-15T10:01:19.160Z,1.597234,0.019291,-1.108502
2025-01-15T10:01:19.200Z,-0.034547,0.065167,-1.046283
2025-01-15T10:01:19.240Z,0.051008,0.008913,-0.970014
2025-01-15T10:01:19.280Z,-0.034866,0.051007,-0.942867
2025-01-15T10:01:19.320Z,0.006154,0.00888,-0.930996
2025-01-15T10:01:19.360Z,-0.049477,0.027543,-1.066859
2025-01-15T10:01:19.400Z,-0.009599,-0.006747,-1.04056
2025-01-15T10:01:19.440Z,0.010816,0.056872,-1.063481
2025-01-15T10:01:19.480Z,0.045765,0.002955,-0.978568
2025-01-15T10:01:19.520Z,-0.025826,0.031922,0.703511
2025-01-15T10:01:19.560Z,0.00553,0.03617,-1.067451
2025-01-15T10:01:19.600Z,0.024217,0.08771,0.414835
2025-01-15T10:01:19.640Z,-0.006267,0.110426,-1.086458
2025-01-15T10:01:19.680Z,0.012221,-0.012515,-0.98634
2025-01-15T10:01:19.720Z,-0.033611,-0.065327,-0.975591
2025-01-15T10:01:19.760Z,-1.596215,-0.021191,-1.070694
2025-01-15T10:01:19.800Z,-0.040695,-0.027345,-1.055664
2025-01-15T10:01:19.840Z,0.026082,0.005677,-1.033719
2025-01-15T10:01:19.880Z,-0.047481,-0.061105,-0.933959
2025-01-15T10:01:19.920Z,0.04006,0.016494,-1.016251
2025-01-15T10:01:19.960Z,-0.005255,-0.006491,-0.909579
2025-01-15T10:01:20.000Z,-0.015545,0.047324,-1.074255
2025-01-15T10:01:20.040Z,-0.016049,0.025101,-0.983037
2025-01-15T10:01:20.080Z,-1.106509,0.021251,-0.979878
2025-01-15T10:01:20.120Z,0.01633,0.036115,-0.936838
2025-01-15T10:01:20.160Z,-0.003795,-0.033774,-1.055217
2025-01-15T10:01:20.200Z,-0.032657,0.018082,-0.953249
2025-01-15T10:01:20.240Z,0.027329,0.017121,-1.034032
2025-01-15T10:01:20.280Z,-0.005008,0.040908,-0.959409
2025-01-15T10:01:20.320Z,-0.040538,0.017519,-0.960188
2025-01-15T10:01:20.360Z,0.032371,0.052087,-1.057036
2025-01-15T10:01:20.400Z,0.014387,0.067198,-0.988416
2025-01-15T10:01:20.440Z,0.008877,-0.022277,-1.065612
2025-01-15T10:01:20.480Z,0.025299,-0.105931,-1.030172
2025-01-15T10:01:20.520Z,0.004675,-0.046694,-0.940831
2025-01-15T10:01:20.560Z,-0.05229,-0.001709,-1.060818
2025-01-15T10:01:20.600Z,-0.072335,-0.014263,-0.972787
2025-01-15T10:01:20.640Z,-0.002762,-0.098576,-1.039376
2025-01-15T10:01:20.680Z,0.000337,-0.007722,-0.949227
2025-01-15T10:01:20.720Z,0.028738,-0.023965,-1.045209
2025-01-15T10:01:20.760Z,0.006698,-0.006346,-1.058767
2025-01-15T10:01:20.800Z,-0.009941,-0.029007,-0.968127
2025-01-15T10:01:20.840Z,0.021986,-0.080519,-1.035333
2025-01-15T10:01:20.880Z,0.074566,-0.024189,-0.999913
2025-01-15T10:01:20.920Z,0.027478,-0.035582,-1.086388
2025-01-15T10:01:20.960Z,0.044781,-0.020602,-0.896642
2025-01-15T10:01:21.000Z,-0.050724,0.00572,-3.028763
2025-01-15T10:01:21.040Z,-0.003099,-8.3e-05,-1.037326
2025-01-15T10:01:21.080Z,-0.006598,0.016516,-0.995217
2025-01-15T10:01:21.120Z,-0.036203,-0.003231,-1.015287
2025-01-15T10:01:21.160Z,0.018622,-0.054454,-1.000494
2025-01-15T10:01:21.200Z,-0.019268,0.014885,-1.095541
2025-01-15T10:01:21.240Z,-0.015979,0.063161,-1.016777
2025-01-15T10:01:21.280Z,0.002621,-0.036303,-0.882498
2025-01-15T10:01:21.320Z,0.024506,-0.000824,-1.068825
2025-01-15T10:01:21.360Z,-0.082433,0.02056,-0.90615
2025-01-15T10:01:21.400Z,0.099124,0.03733,-0.882431
2025-01-15T10:01:21.440Z,0.009739,0.026659,-0.946165
2025-01-15T10:01:21.480Z,-1.680737,-0.058444,-1.073344
2025-01-15T10:01:21.520Z,0.011154,-0.022026,-1.040893
2025-01-15T10:01:21.560Z,-0.014737,-0.080296,-0.976496
2025-01-15T10:01:21.600Z,-0.018725,0.056984,-0.912748
2025-01-15T10:01:21.640Z,-0.026663,0.073147,-1.069285
2025-01-15T10:01:21.680Z,0.011153,0.008886,-1.006557
2025-01-15T10:01:21.720Z,-0.013395,0.085086,-1.171201
2025-01-15T10:01:21.760Z,-0.046076,-0.024833,-1.035887
2025-01-15T10:01:21.800Z,-0.038201,-0.046128,-1.023447
2025-01-15T10:01:21.840Z,0.055636,-0.025942,-0.970586
2025-01-15T10:01:21.880Z,0.05415,-0.019362,-1.021226
2025-01-15T10:01:21.920Z,-0.006088,-0.075893,-1.059424
2025-01-15T10:01:21.960Z,0.004269,0.086392,-1.03674
2025-01-15T10:01:22.000Z,0.026103,-0.040666,-1.086267
2025-01-15T10:01:22.040Z,-0.075166,-0.02226,-1.036413
2025-01-15T10:01:22.080Z,0.026216,0.024786,-1.034811
2025-01-15T10:01:22.120Z,0.009614,-0.05028,-0.986294
2025-01-15T10:01:22.160Z,0.072262,-0.006259,-0.955692
2025-01-15T10:01:22.200Z,-0.014596,0.065904,-1.048034
2025-01-15T10:01:22.240Z,-0.03437,0.003582,-0.975148
2025-01-15T10:01:22.280Z,-0.051462,-0.056429,-0.985251
2025-01-15T10:01:22.320Z,-1.294068,-0.048801,-0.992057
2025-01-15T10:01:22.360Z,-0.014297,-0.000486,-0.95299
2025-01-15T10:01:22.400Z,0.031689,-0.014152,-0.985682
2025-01-15T10:01:22.440Z,0.039856,0.01348,-0.96255
2025-01-15T10:01:22.480Z,0.114671,-0.083774,-1.093153
2025-01-15T10:01:22.520Z,-0.031896,-0.080692,-1.050054
2025-01-15T10:01:22.560Z,-0.072837,0.006807,-1.07341
2025-01-15T10:01:22.600Z,-0.073294,0.059047,-1.00299
2025-01-15T10:01:22.640Z,-0.024842,-0.039426,-0.985036
2025-01-15T10:01:22.680Z,0.018798,-0.059941,-0.966535
2025-01-15T10:01:22.720Z,-0.015907,0.018176,-0.925238
2025-01-15T10:01:22.760Z,-0.002728,-0.000471,-0.989042
2025-01-15T10:01:22.800Z,0.036193,0.075665,-1.020811
2025-01-15T10:01:22.840Z,0.00303,-0.010892,-0.966801
2025-01-15T10:01:22.880Z,-0.032988,-0.02102,-1.023773
2025-01-15T10:01:22.920Z,-0.045284,-0.0682,-1.047182
2025-01-15T10:01:22.960Z,-0.015249,0.019839,-0.945001
2025-01-15T10:01:23.000Z,-0.026973,0.046399,-1.040035
2025-01-15T10:01:23.040Z,0.014495,-0.022712,-0.955536
2025-01-15T10:01:23.080Z,0.005352,0.02904,-0.971555
2025-01-15T10:01:23.120Z,0.039795,-0.008911,-1.040255
2025-01-15T10:01:23.160Z,0.019147,-0.050991,-0.976242
2025-01-15T10:01:23.200Z,-0.089535,0.001367,-0.887127
2025-01-15T10:01:23.240Z,-0.021187,-0.039698,-0.949339
2025-01-15T10:01:23.280Z,-0.028479,-0.065683,-0.98423
2025-01-15T10:01:23.320Z,0.039941,0.040145,-1.086561
2025-01-15T10:01:23.360Z,0.003581,0.012252,-0.970686
2025-01-15T10:01:23.400Z,0.036668,-0.048526,-0.990463
2025-01-15T10:01:23.440Z,-0.018414,-0.006545,-1.056822
2025-01-15T10:01:23.480Z,-0.041815,0.004879,-0.947859
2025-01-15T10:01:23.520Z,0.06833,-0.024759,-0.980882
2025-01-15T10:01:23.560Z,-0.010302,-0.046634,-1.010302
2025-01-15T10:01:23.600Z,0.040124,0.064083,-1.076214
2025-01-15T10:01:23.640Z,-0.083082,-0.031075,-0.974527
2025-01-15T10:01:23.680Z,-0.069349,0.03677,-1.037331
2025-01-15T10:01:23.720Z,-0.026426,-0.009351,-0.943179
2025-01-15T10:01:23.760Z,-0.06531,0.013259,-0.987902
2025-01-15T10:01:23.800Z,-0.056919,0.067163,-0.897423
2025-01-15T10:01:23.840Z,0.002515,0.000403,-0.924332
2025-01-15T10:01:23.880Z,0.026824,-0.005765,-0.927566
2025-01-15T10:01:23.920Z,1.967073,0.036337,-0.943837
2025-01-15T10:01:23.960Z,-0.025885,-0.022143,-1.124101
2025-01-15T10:01:24.000Z,0.022619,-0.015706,-0.927682
2025-01-15T10:01:24.040Z,-0.01732,0.050029,-2.205795
2025-01-15T10:01:24.080Z,-0.013002,-0.026942,-0.94293
2025-01-15T10:01:24.120Z,-0.008191,0.009353,-1.051188
2025-01-15T10:01:24.160Z,-0.047989,0.03457,-0.991677
2025-01-15T10:01:24.200Z,0.007276,0.075758,-1.027644
2025-01-15T10:01:24.240Z,0.071189,-0.023956,-0.998741
2025-01-15T10:01:24.280Z,-1.087439,0.035976,-1.013981
2025-01-15T10:01:24.320Z,-0.028986,-0.025284,-1.084423
2025-01-15T10:01:24.360Z,0.021031,0.096424,-0.947082
2025-01-15T10:01:24.400Z,0.014469,-0.028304,-0.911186
2025-01-15T10:01:24.440Z,0.023909,-0.09064,-1.038875
2025-01-15T10:01:24.480Z,-0.015056,0.028122,0.19397
2025-01-15T10:01:24.520Z,-0.019588,-0.064216,-1.059027
2025-01-15T10:01:24.560Z,0.03984,0.021859,-0.977291
2025-01-15T10:01:24.600Z,0.006566,-0.022462,-1.05363
2025-01-15T10:01:24.640Z,0.005094,0.004766,-1.005095
2025-01-15T10:01:24.680Z,-0.109537,0.037513,-0.952798
2025-01-15T10:01:24.720Z,0.017465,-0.05594,-1.057978
2025-01-15T10:01:24.760Z,0.02195,0.082706,-0.981654
2025-01-15T10:01:24.800Z,-0.013375,0.056306,-1.074649
2025-01-15T10:01:24.840Z,0.031358,-0.078694,-0.987913
2025-01-15T10:01:24.880Z,-0.037118,-0.060832,-1.046593
2025-01-15T10:01:24.920Z,0.036828,-1.348009,-0.961819
2025-01-15T10:01:24.960Z,-0.037924,0.020702,-1.016484
2025-01-15T10:01:25.000Z,-0.000656,0.045682,-0.967261
2025-01-15T10:01:25.040Z,-0.051508,-0.062135,-1.028353
2025-01-15T10:01:25.080Z,-0.039544,0.001602,-0.869784
2025-01-15T10:01:25.120Z,0.008294,0.007702,-1.038059
2025-01-15T10:01:25.160Z,0.028977,0.00017,-1.06694
2025-01-15T10:01:25.200Z,0.052054,0.065248,-1.062524
2025-01-15T10:01:25.240Z,-0.040953,-0.003774,-0.950847
2025-01-15T10:01:25.280Z,0.04628,-0.035491,-0.990455
2025-01-15T10:01:25.320Z,0.008403,-0.062717,-0.975798
2025-01-15T10:01:25.360Z,-0.120055,-0.036448,-1.047992
2025-01-15T10:01:25.400Z,0.039334,-0.051867,-0.984556
2025-01-15T10:01:25.440Z,-0.015171,0.020772,-1.012773
2025-01-15T10:01:25.480Z,0.033215,0.057888,-1.05267
2025-01-15T10:01:25.520Z,0.017553,-0.005316,-0.986826
2025-01-15T10:01:25.560Z,0.021212,-0.020555,-0.908171
2025-01-15T10:01:25.600Z,-0.027206,-0.012952,-0.986087
2025-01-15T10:01:25.640Z,0.01747,-0.031808,-0.987235
2025-01-15T10:01:25.680Z,0.025084,0.040767,-0.935116
2025-01-15T10:01:25.720Z,0.866137,0.145428,-0.618101
2025-01-15T10:01:25.760Z,0.052473,-0.046546,-1.035875
2025-01-15T10:01:25.800Z,-0.010962,0.070395,-1.017251
2025-01-15T10:01:25.840Z,-0.009045,-0.020311,-1.051124
2025-01-15T10:01:25.880Z,-0.043152,-0.051763,-0.928181
2025-01-15T10:01:25.920Z,0.045069,-0.033579,-2.85087
2025-01-15T10:01:25.960Z,-0.021807,0.041344,-0.957182
2025-01-15T10:01:26.000Z,-0.012121,-0.054345,0.685322
2025-01-15T10:01:26.040Z,0.026412,0.034817,-0.928025
2025-01-15T10:01:26.080Z,-0.010431,-0.073969,-0.908551
2025-01-15T10:01:26.120Z,0.010846,0.044906,-0.968003
2025-01-15T10:01:26.160Z,-0.052375,0.046849,-0.965921
2025-01-15T10:01:26.200Z,0.046118,0.033646,-0.931438
2025-01-15T10:01:26.240Z,-0.019395,0.053599,-1.077294
2025-01-15T10:01:26.280Z,-0.008188,0.001461,-1.001567
2025-01-15T10:01:26.320Z,0.00342,-0.011184,-1.058473
2025-01-15T10:01:26.360Z,0.018203,-0.005568,-1.001564
2025-01-15T10:01:26.400Z,-0.057356,0.03922,-0.984617
2025-01-15T10:01:26.440Z,0.062318,-0.0194,-1.063661
2025-01-15T10:01:26.480Z,0.006565,-0.042232,-0.953018
2025-01-15T10:01:26.520Z,0.026935,0.078151,-0.976787
2025-01-15T10:01:26.560Z,-0.052407,-0.044816,0.877321
2025-01-15T10:01:26.600Z,0.087074,-0.013305,-0.880787
2025-01-15T10:01:26.640Z,0.010646,-0.029319,-0.834196
2025-01-15T10:01:26.680Z,-0.035104,0.013136,-1.077464
2025-01-15T10:01:26.720Z,0.037693,-0.020589,0.917846
2025-01-15T10:01:26.760Z,-0.000446,-0.031995,-1.086986
2025-01-15T10:01:26.800Z,-0.013626,0.003002,-0.970546
2025-01-15T10:01:26.840Z,0.021004,0.005385,-1.011011
2025-01-15T10:01:26.880Z,0.02928,0.010712,-0.994245
2025-01-15T10:01:26.920Z,0.030461,0.024559,-0.905971
2025-01-15T10:01:26.960Z,0.027585,-0.021251,-1.042875
2025-01-15T10:01:27.000Z,0.003859,-0.027912,-0.898164
2025-01-15T10:01:27.040Z,0.03137,0.024696,-1.003722
2025-01-15T10:01:27.080Z,1.477743,0.031996,-0.959086
2025-01-15T10:01:27.120Z,0.029165,0.014865,-1.030274
2025-01-15T10:01:27.160Z,0.024282,-0.017184,-1.051462
2025-01-15T10:01:27.200Z,-0.077982,-0.031352,-0.938208
2025-01-15T10:01:27.240Z,-0.057294,-0.02188,-1.026711
2025-01-15T10:01:27.280Z,0.033122,0.068219,-1.061391
2025-01-15T10:01:27.320Z,8.8e-05,-0.043482,-1.005014
2025-01-15T10:01:27.360Z,-0.00456,0.019283,-1.026586
2025-01-15T10:01:27.400Z,0.002506,0.02143,-1.020256
2025-01-15T10:01:27.440Z,0.072287,-0.059577,-1.058884
2025-01-15T10:01:27.480Z,0.00171,-0.021331,-0.979844
2025-01-15T10:01:27.520Z,0.048866,-0.012098,-1.055414
2025-01-15T10:01:27.560Z,0.016777,-0.031549,-0.998133
2025-01-15T10:01:27.600Z,0.042645,0.015642,-2.364612
2025-01-15T10:01:27.640Z,-0.053085,-0.006978,-1.038132
2025-01-15T10:01:27.680Z,-0.020014,-0.041345,-1.131152
2025-01-15T10:01:27.720Z,-0.006827,-0.008807,-1.043575
2025-01-15T10:01:27.760Z,-0.039938,0.015321,-0.918119
2025-01-15T10:01:27.800Z,-0.011104,0.000135,0.641611
2025-01-15T10:01:27.840Z,-1.993589,0.079576,-1.02959
2025-01-15T10:01:27.880Z,-0.040024,0.040003,-0.958698
2025-01-15T10:01:27.920Z,-0.007389,-0.013815,-1.040219
2025-01-15T10:01:27.960Z,0.057201,0.033349,-0.954289
2025-01-15T10:01:28.000Z,-0.050823,-0.018835,-1.068278
2025-01-15T10:01:28.040Z,0.068369,-0.078742,-1.034882
2025-01-15T10:01:28.080Z,-0.036636,0.025114,-0.997488
2025-01-15T10:01:28.120Z,-0.04706,0.068693,-0.977587
2025-01-15T10:01:28.160Z,0.055351,-0.038844,-0.976126
2025-01-15T10:01:28.200Z,-0.019872,0.041906,-1.038591
2025-01-15T10:01:28.240Z,-0.050801,-0.086238,-0.939028
2025-01-15T10:01:28.280Z,-0.024939,-0.018096,-1.038117
2025-01-15T10:01:28.320Z,-0.009758,1.32267,-1.013843
2025-01-15T10:01:28.360Z,0.00427,-0.016218,-1.025209
2025-01-15T10:01:28.400Z,0.001727,0.031511,-2.509547
2025-01-15T10:01:28.440Z,-0.003863,0.002412,-1.045071
2025-01-15T10:01:28.480Z,-1.983188,-0.01442,-0.955062
2025-01-15T10:01:28.520Z,0.000717,-0.007633,-1.00122
2025-01-15T10:01:28.560Z,0.029822,-0.030139,-0.984649
2025-01-15T10:01:28.600Z,0.03923,0.014514,-0.932612
2025-01-15T10:01:28.640Z,-0.029918,-0.028944,-1.050826
2025-01-15T10:01:28.680Z,-0.017551,-0.07314,-0.923468
2025-01-15T10:01:28.720Z,-0.010399,-0.057192,-0.990804
2025-01-15T10:01:28.760Z,-0.088516,0.05733,-1.083731
2025-01-15T10:01:28.800Z,0.048906,-0.01636,-0.934182
2025-01-15T10:01:28.840Z,-0.059399,0.0329,-1.067559
2025-01-15T10:01:28.880Z,-0.030765,-0.020829,-1.002294
2025-01-15T10:01:28.920Z,-0.02024,-0.001814,-0.992017
2025-01-15T10:01:28.960Z,-0.017774,0.005208,-0.997105
2025-01-15T10:01:29.000Z,-0.02373,-0.015924,-1.073627
2025-01-15T10:01:29.040Z,0.037684,-0.037048,-0.984761
2025-01-15T10:01:29.080Z,0.004088,0.000273,-1.028085
2025-01-15T10:01:29.120Z,0.015331,-0.048587,-1.111927
2025-01-15T10:01:29.160Z,-0.063219,-0.002409,-0.972799
2025-01-15T10:01:29.200Z,0.061782,-0.11605,-1.045747
2025-01-15T10:01:29.240Z,-0.024453,0.013304,-0.923538
2025-01-15T10:01:29.280Z,-0.047901,-0.024808,-1.059065
2025-01-15T10:01:29.320Z,0.006848,0.077811,-1.0132
2025-01-15T10:01:29.360Z,0.016521,-0.026618,-0.971271
